delay,freq,condition,trials.thisRepN,trials.thisTrialN,trials.thisN,trials.thisIndex,thisRow.t,notes,trial.started,Fixation.started,polygon.started,key_resp.started,Fixation.stopped,trial.stopped,key_resp.keys,key_resp.rt,key_resp.duration,beep.started,beeeep.started,beeeep.stopped,beep.stopped,response.started,text.started,textbox.started,mouse.started,button.started,response.stopped,textbox.text,mouse.x,mouse.y,mouse.leftButton,mouse.midButton,mouse.rightButton,mouse.time,button.numClicks,button.timesOn,button.timesOff,participant,session,date,expName,psychopyVersion,frameRate,expStart
0.1,1000,exp,0,0,0,9,0.0581937,,0.0490742,0.0581937,0.1092735,1.0089694,1.0586874,3.7792976,space,2.6194816,None,3.7839071,3.891679967,4.2408792,4.2208469,4.2208691,4.2408792,4.2408792,0.0007798,4.2408792,9.1945793,100,[0.06666666666666667],[-0.27666666666666667],[1],[0],[0],[4.9721896000000925],1,[4.972321400000055],[4.972327599999971],Final,1,2024-11-13_22h22.56.541,binding,2024.1.5,None,2024-11-13 22h25.19.013376 +0530
0.7,400,unexp,0,1,1,2,9.2238694,,9.2136071,9.2238694,9.3247157,10.2245288,10.2245288,11.560154,space,1.3277825,None,11.5617297,12.27386657,12.6233037,12.6007811,12.6008025,12.6233037,12.6233037,0.0006572,12.6233037,18.2599059,200,[0.06666666666666667],[-0.27666666666666667],[1],[0],[0],[5.657726599999933],1,[5.657837100000052],[5.6578426000000945],Final,1,2024-11-13_22h22.56.541,binding,2024.1.5,None,2024-11-13 22h25.19.013376 +0530
0.4,1000,exp,0,2,2,7,18.2732181,,18.266382,18.2732181,18.3731621,19.2730256,19.2730256,19.39239,space,0.1044997,None,19.3939667,19.80625577,,20.0364531,20.0364719,20.0555826,20.0555826,0.0004665,20.0555826,23.9596948,100,[-0.05],[-0.2733333333333333],[1],[0],[0],[3.922011399999974],1,[3.922125199999982],[3.9221308000001045],Final,1,2024-11-13_22h22.56.541,binding,2024.1.5,None,2024-11-13 22h25.19.013376 +0530
0.4,1000,exp,0,3,3,4,23.9724719,,23.9660209,23.9724719,24.0722924,24.9722396,24.9722396,25.5749536,space,0.5860458,None,25.576559,25.98870687,,26.2468915,26.2469095,26.2557255,26.2557255,0.0004601,26.2557255,33.0755694,250,[-0.05],[-0.2733333333333333],[1],[0],[0],[6.827273500000047],1,[6.827445000000125],[6.827452900000026],Final,1,2024-11-13_22h22.56.541,binding,2024.1.5,None,2024-11-13 22h25.19.013376 +0530
0.7,1000,exp,0,4,4,5,33.0882583,,33.0820919,33.0882583,33.1883114,34.0876819,34.0876819,34.1751102,space,0.0727222,None,34.1767261,34.88765067,,35.1607897,35.1608081,35.1708097,35.1708097,0.0004758,35.1708097,38.3580634,600,[-0.05],[-0.2733333333333333],[1],[0],[0],[3.1958992999998372],1,[3.196051699999998],[3.196058600000015],Final,1,2024-11-13_22h22.56.541,binding,2024.1.5,None,2024-11-13 22h25.19.013376 +0530
0.7,1000,exp,0,5,5,8,38.3707431,,38.3643969,38.3707431,38.4708001,39.3704619,39.3704619,40.206324,space,0.8199812,None,40.2079148,40.92010377,41.2696864,41.2565003,41.2565191,41.2696864,41.2696864,0.0005521,41.2696864,44.7235678,500,[-0.05],[-0.2733333333333333],[1],[0],[0],[3.465765799999872],1,[3.465872499999932],[3.465877899999896],Final,1,2024-11-13_22h22.56.541,binding,2024.1.5,None,2024-11-13 22h25.19.013376 +0530
0.7,1000,exp,0,6,6,11,44.7364693,,44.7297859,44.7364693,44.8364946,45.7363186,45.7363186,46.2567971,space,0.5120444,None,46.258434,46.96929777,,47.2587138,47.25873,47.2685995,47.2685995,0.0004886,47.2685995,49.3557349,800,[-0.05],[-0.2733333333333333],[1],[0],[0],[2.0957691999999497],1,[2.0958700999999564],[2.0958753999998407],Final,1,2024-11-13_22h22.56.541,binding,2024.1.5,None,2024-11-13 22h25.19.013376 +0530
0.1,400,unexp,0,7,7,0,49.3693915,,49.362075,49.3693915,49.4691678,50.3689291,50.3689291,50.5217429,space,0.1416783,None,50.5233545,50.63562627,50.9680948,50.9456407,50.9456618,50.9680948,50.9680948,0.0006538,50.9680948,54.4382986,100,[-0.05],[-0.2733333333333333],[1],[0],[0],[3.491287199999988],1,[3.4913880000001427],[3.4913931999999477],Final,1,2024-11-13_22h22.56.541,binding,2024.1.5,None,2024-11-13 22h25.19.013376 +0530
0.4,1000,exp,0,8,8,10,54.4519326,,54.4445524,54.4519326,54.5518779,55.4517102,55.4517102,55.5547348,space,0.0927486,None,55.5563439,55.96825847,56.2681833,56.2555713,56.2556376,56.2681833,56.2681833,0.0005675,56.2681833,58.8875117,200,[-0.05],[-0.2733333333333333],[1],[0],[0],[2.6305457000000843],1,[2.6306480999999167],[2.6306538999999702],Final,1,2024-11-13_22h22.56.541,binding,2024.1.5,None,2024-11-13 22h25.19.013376 +0530
0.1,1000,exp,0,9,9,3,58.9012383,,58.8939658,58.9012383,59.0012079,59.9010285,59.9010285,59.9709221,space,0.0664806,None,59.9725738,60.08438487,60.4336092,60.4247933,60.4248158,60.4336092,60.4336092,0.0005468,60.4336092,69.0045692,50,[0.02],[-0.32666666666666666],[1],[0],[0],[8.578413700000056],1,[8.578526900000043],[8.578532400000086],Final,1,2024-11-13_22h22.56.541,binding,2024.1.5,None,2024-11-13 22h25.19.013376 +0530
0.4,400,unexp,0,10,10,1,69.0168816,,69.0111632,69.0168816,69.1167483,70.0164814,70.0164814,70.252492,space,0.2311857,None,70.2540762,70.66634757,,70.9475711,70.9475912,70.9657503,70.9657503,0.0005291,70.9657503,75.6526249,20,[0.02],[-0.32666666666666666],[1],[0],[0],[4.703753199999937],1,[4.703870800000004],[4.703876799999989],Final,1,2024-11-13_22h22.56.541,binding,2024.1.5,None,2024-11-13 22h25.19.013376 +0530
0.1,1000,exp,0,11,11,6,75.6658143,,75.6593408,75.6658143,75.7658545,76.6655531,76.6655531,77.0361047,space,0.3538742,None,77.0377302,77.14905097,77.4980515,77.4854494,77.4854719,77.4980515,77.4980515,0.0005701,77.4980515,80.7026646,200,[0.02],[-0.32666666666666666],[1],[0],[0],[3.215763299999935],1,[3.215932900000098],[3.2159401000001253],Final,1,2024-11-13_22h22.56.541,binding,2024.1.5,None,2024-11-13 22h25.19.013376 +0530
0.7,1000,exp,1,0,12,11,80.7151457,,80.7090736,80.7151457,80.8153484,81.7152719,81.7152719,81.7347464,space,0.014393,None,81.7362787,82.44814277,82.7640511,82.7455492,82.7455689,82.7640511,82.7640511,0.0004898,82.7640511,88.6836925,999,[0.02],[-0.32666666666666666],[1],[0],[0],[5.936882000000196],1,[5.936974799999916],[5.93698059999997],Final,1,2024-11-13_22h22.56.541,binding,2024.1.5,None,2024-11-13 22h25.19.013376 +0530
0.1,1000,exp,1,1,13,6,88.6972996,,88.6899769,88.6972996,88.7975027,89.6972403,89.6972403,89.9000079,space,0.1884718,None,89.9015854,90.01373087,90.3462302,90.3234437,90.3234616,90.3462302,90.3462302,0.0005278,90.3462302,93.8665551,150,[0.02],[-0.32666666666666666],[1],[0],[0],[3.5418328999999176],1,[3.541944199999989],[3.541949299999942],Final,1,2024-11-13_22h22.56.541,binding,2024.1.5,None,2024-11-13 22h25.19.013376 +0530
0.4,1000,exp,1,2,14,7,93.8799618,,93.8727501,93.8799618,93.980046,94.8798535,94.8798535,94.9838063,space,0.0906398,None,94.9853724,95.39676417,95.6963249,95.6834282,95.6834473,95.6963249,95.6963249,0.0004673,95.6963249,98.9496227,180,[0.02],[-0.32666666666666666],[1],[0],[0],[3.264997800000174],1,[3.265108899999859],[3.265114899999844],Final,1,2024-11-13_22h22.56.541,binding,2024.1.5,None,2024-11-13 22h25.19.013376 +0530
0.1,400,unexp,1,3,15,0,98.9630616,,98.9561667,98.9630616,99.0627689,99.9625464,99.9625464,100.0987063,space,0.1263661,None,100.1002807,100.2123658,,100.5017365,100.5017567,100.511818,100.511818,0.0005604,100.511818,103.0488794,200,[0.02],[-0.32666666666666666],[1],[0],[0],[2.54589349999992],1,[2.546002099999896],[2.546007599999939],Final,1,2024-11-13_22h22.56.541,binding,2024.1.5,None,2024-11-13 22h25.19.013376 +0530
0.1,1000,exp,1,4,16,3,103.0621007,,103.0550599,103.0621007,103.1621873,104.0620402,104.0620402,104.1814427,space,0.1108555,None,104.1830473,104.2951795,,104.5809708,104.5809906,104.5948564,104.5948564,0.000554,104.5948564,108.8828842,100,[0.02],[-0.32666666666666666],[1],[0],[0],[4.300439099999949],1,[4.300599599999941],[4.300607099999979],Final,1,2024-11-13_22h22.56.541,binding,2024.1.5,None,2024-11-13 22h25.19.013376 +0530
0.7,1000,exp,1,5,17,8,108.8950567,,108.8891092,108.8950567,108.9948635,109.8945279,109.8945279,110.0141099,space,0.1043176,None,110.0156758,110.7278728,,111.0065822,111.0066008,111.0270106,111.0270106,0.0004722,111.0270106,113.5306057,500,[0.02],[-0.32666666666666666],[1],[0],[0],[2.5227956999999606],1,[2.522904199999857],[2.5229104000000007],Final,1,2024-11-13_22h22.56.541,binding,2024.1.5,None,2024-11-13 22h25.19.013376 +0530
0.4,1000,exp,1,6,18,4,113.5441484,,113.5371119,113.5441484,113.6441375,114.5437888,114.5437888,114.7800907,space,0.2286069,None,114.7816951,115.1939937,115.5100681,115.4898282,115.489847,115.5100681,115.5100681,0.0004878,115.5100681,118.1139151,200,[0.02],[-0.32666666666666666],[1],[0],[0],[2.622740199999953],1,[2.622873099999879],[2.6228794999999536],Final,1,2024-11-13_22h22.56.541,binding,2024.1.5,None,2024-11-13 22h25.19.013376 +0530
0.4,1000,exp,1,7,19,10,118.1272914,,118.1213182,118.1272914,118.2274076,119.1270761,119.1270761,119.3634362,space,0.2328918,None,119.3650938,119.7765556,120.0765878,120.0677084,120.0677278,120.0765878,120.0765878,0.0004913,120.0765878,122.6458355,200,[0.02],[-0.32666666666666666],[1],[0],[0],[2.5769192000000203],1,[2.577022199999874],[2.577027699999917],Final,1,2024-11-13_22h22.56.541,binding,2024.1.5,None,2024-11-13 22h25.19.013376 +0530
0.7,1000,exp,1,8,20,5,122.6596121,,122.6522427,122.6596121,122.7596647,123.6594895,123.6594895,123.8294613,space,0.1537356,None,123.8311157,124.5425236,,124.7945587,124.7945793,124.8086693,124.8086693,0.0005268,124.8086693,127.5789988,200,[0.02],[-0.32666666666666666],[1],[0],[0],[2.7830871999999545],1,[2.7831994999999097],[2.7832052999999632],Final,1,2024-11-13_22h22.56.541,binding,2024.1.5,None,2024-11-13 22h25.19.013376 +0530
0.1,1000,exp,1,9,21,9,127.5922205,,127.5878972,127.5922205,127.6923847,128.5921979,128.5921979,128.9956772,space,0.4017509,None,128.9972802,129.1087006,129.4089935,129.3952333,129.3952542,129.4089935,129.4089935,0.0005429,129.4089935,132.6949025,50,[0.02],[-0.32666666666666666],[1],[0],[0],[3.2983514000000014],1,[3.2984570999999505],[3.298462299999983],Final,1,2024-11-13_22h22.56.541,binding,2024.1.5,None,2024-11-13 22h25.19.013376 +0530
0.4,400,unexp,1,10,22,1,132.7084123,,132.7010968,132.7084123,132.8083301,133.7081321,133.7081321,133.7945117,space,0.0843158,None,133.7961168,134.2079691,134.5079792,134.4994649,134.4994835,134.5079792,134.5079792,0.0004664,134.5079792,137.4620587,400,[0.02],[-0.32666666666666666],[1],[0],[0],[2.961195000000089],1,[2.9613542999998117],[2.9613616999999977],Final,1,2024-11-13_22h22.56.541,binding,2024.1.5,None,2024-11-13 22h25.19.013376 +0530
0.7,400,unexp,1,11,23,2,137.4744121,,137.468534,137.4744121,137.574345,138.4742289,138.4742289,138.5611784,space,0.0759949,None,138.5627597,139.2741262,139.589851,139.5685029,139.5685225,139.589851,139.589851,0.0005475,139.589851,142.9434777,200,[0.02],[-0.32666666666666666],[1],[0],[0],[3.3737332000000606],1,[3.3738396999999622],[3.373845000000074],Final,1,2024-11-13_22h22.56.541,binding,2024.1.5,None,2024-11-13 22h25.19.013376 +0530
0.4,1000,exp,2,0,24,10,142.9573149,,142.9496838,142.9573149,143.0569937,143.9569319,143.9569319,143.9930061,space,0.0237486,None,143.9946151,144.4066672,144.7068939,144.6960748,144.6960924,144.7068939,144.7068939,0.0004742,144.7068939,147.509392,100,[0.02],[-0.32666666666666666],[1],[0],[0],[2.8121426000000156],1,[2.812247800000023],[2.812253300000066],Final,1,2024-11-13_22h22.56.541,binding,2024.1.5,None,2024-11-13 22h25.19.013376 +0530
0.7,1000,exp,2,1,25,11,147.5232987,,147.5156614,147.5232987,147.622943,148.523045,148.523045,148.8622119,space,0.3304489,None,148.8652148,149.5733312,149.8887054,149.8696327,149.8696567,149.8887054,149.8887054,0.0006098,149.8887054,151.7447342,200,[0.02],[-0.32666666666666666],[1],[0],[0],[1.8735285999998723],1,[1.873705199999904],[1.873713700000053],Final,1,2024-11-13_22h22.56.541,binding,2024.1.5,None,2024-11-13 22h25.19.013376 +0530
0.7,1000,exp,2,2,26,8,151.7719181,,151.7522603,151.7719181,151.8564622,152.756316,152.7724219,153.1090462,space,0.3420846,None,153.1109399,153.8222948,,154.1092214,154.1092446,154.1216817,154.1216817,0.0006334,154.1216817,158.4923542,100,[0.02],[-0.32666666666666666],[1],[0],[0],[4.381548800000019],1,[4.381689699999924],[4.381697099999883],Final,1,2024-11-13_22h22.56.541,binding,2024.1.5,None,2024-11-13 22h25.19.013376 +0530
0.1,400,unexp,2,3,27,0,158.5049622,,158.4989682,158.5049622,158.604809,159.504766,159.504766,160.6078703,space,1.0863649,None,160.609635,160.7218663,161.0375167,161.0193623,161.0193884,161.0375167,161.0375167,0.0009013,161.0375167,163.8911172,100,[0.02],[-0.32666666666666666],[1],[0],[0],[2.8700745999999526],1,[2.8701977999999144],[2.87020369999982],Final,1,2024-11-13_22h22.56.541,binding,2024.1.5,None,2024-11-13 22h25.19.013376 +0530
0.4,1000,exp,2,4,28,4,163.9042745,,163.8978342,163.9042745,164.0042214,164.9040607,164.9040607,165.0566662,space,0.1456991,None,165.058248,165.470683,165.7875314,165.7708259,165.7708454,165.7875314,165.7875314,0.0006264,165.7875314,167.6902644,400,[0.02],[-0.32666666666666666],[1],[0],[0],[1.9180916000000252],1,[1.9182003999999324],[1.9182054999998854],Final,1,2024-11-13_22h22.56.541,binding,2024.1.5,None,2024-11-13 22h25.19.013376 +0530
0.4,1000,exp,2,5,29,7,167.703774,,167.6966062,167.703774,167.8039479,168.7036394,168.7036394,177.1054321,space,8.3928305,None,177.1071102,177.5190862,177.8351328,177.8173701,177.817408,177.8351328,177.8351328,0.0008286,177.8351328,180.4562055,200,[0.02],[-0.32666666666666666],[1],[0],[0],[2.637250300000005],1,[2.6373616999999285],[2.6373676999999134],Final,1,2024-11-13_22h22.56.541,binding,2024.1.5,None,2024-11-13 22h25.19.013376 +0530
0.4,400,unexp,2,6,30,1,180.4687825,,180.4625838,180.4687825,180.5686323,181.4687314,181.4687314,182.0218678,space,0.54663,None,182.0234796,182.4350575,182.7512396,182.7411497,182.7411725,182.7512396,182.7512396,0.0005733,182.7512396,185.7890487,100,[0.02],[-0.32666666666666666],[1],[0],[0],[3.0464038000000073],1,[3.046566700000085],[3.0465747999999166],Final,1,2024-11-13_22h22.56.541,binding,2024.1.5,None,2024-11-13 22h25.19.013376 +0530
0.7,1000,exp,2,7,31,5,185.817493,,185.7988831,185.817493,185.9015276,186.8015437,186.8180712,186.9041244,space,None,None,186.9074304,187.617808,187.9337802,187.915929,187.9159518,187.9337802,187.9337802,0.0006601,187.9337802,189.8548183,300,[0.02],[-0.32666666666666666],[1],[0],[0],[1.937285299999985],1,[1.937469799999917],[1.937478399999918],Final,1,2024-11-13_22h22.56.541,binding,2024.1.5,None,2024-11-13 22h25.19.013376 +0530
0.1,1000,exp,2,8,32,6,189.8675386,,189.8623178,189.8675386,189.967747,190.8675644,190.8675644,191.5201316,space,0.6404438,None,191.5217227,191.6338455,191.9503555,191.9313482,191.9313678,191.9503555,191.9503555,0.000681,191.9503555,194.8032688,50,[0.02],[-0.32666666666666666],[1],[0],[0],[2.8704686999999467],1,[2.870562600000085],[2.870569899999964],Final,1,2024-11-13_22h22.56.541,binding,2024.1.5,None,2024-11-13 22h25.19.013376 +0530
0.7,400,unexp,2,9,33,2,194.8168406,,194.809657,194.8168406,194.9168129,195.8167003,195.8167003,197.1702875,space,1.3429934,None,197.1718286,197.8831781,,198.1695521,198.1695712,198.1824633,198.1824633,0.000518,198.1824633,200.7362296,100,[0.02],[-0.32666666666666666],[1],[0],[0],[2.5653762000001734],1,[2.5654824999999164],[2.5654879999999594],Final,1,2024-11-13_22h22.56.541,binding,2024.1.5,None,2024-11-13 22h25.19.013376 +0530
0.1,1000,exp,2,10,34,9,200.7655796,,200.7485409,200.7655796,200.8499198,201.7495142,201.7658887,201.7687796,space,0.0031606,None,201.7703825,201.8828712,202.2150444,202.1942434,202.1942723,202.2150444,202.2150444,0.0005631,202.2150444,204.3864797,20,[0.02],[-0.32666666666666666],[1],[0],[0],[2.1907739000000674],1,[2.190929800000049],[2.1909370000000763],Final,1,2024-11-13_22h22.56.541,binding,2024.1.5,None,2024-11-13 22h25.19.013376 +0530
0.1,1000,exp,2,11,35,3,204.3989381,,204.392834,204.3989381,204.499085,205.3987066,205.3987066,206.2354328,space,0.8316436,None,206.2372587,206.348472,206.6812428,206.6651341,206.6651553,206.6812428,206.6812428,0.0005735,206.6812428,209.1191911,20,[0.02],[-0.32666666666666666],[1],[0],[0],[2.452724499999931],1,[2.4528256000000965],[2.4528313999999227],Final,1,2024-11-13_22h22.56.541,binding,2024.1.5,None,2024-11-13 22h25.19.013376 +0530
0.7,400,unexp,3,0,36,2,209.1317467,,209.125414,209.1317467,209.2317738,210.1319478,210.1319478,210.1847251,space,0.0475256,None,210.1863004,210.8979372,,211.1719739,211.1719992,211.1817058,211.1817058,0.0005386,211.1817058,213.5022696,800,[0.02],[-0.32666666666666666],[1],[0],[0],[2.328830799999878],1,[2.3289896999999655],[2.328997000000072],Final,1,2024-11-13_22h22.56.541,binding,2024.1.5,None,2024-11-13 22h25.19.013376 +0530
0.1,400,unexp,3,1,37,0,213.5145156,,213.5089069,213.5145156,213.6147458,214.5143506,214.5143506,214.6676778,space,0.1519822,None,214.669258,214.7808805,215.1302031,215.1122902,215.1123207,215.1302031,215.1302031,0.0007762,215.1302031,219.533147,250,[0.02],[-0.32666666666666666],[1],[0],[0],[4.419255199999952],1,[4.419345099999873],[4.419350599999916],Final,1,2024-11-13_22h22.56.541,binding,2024.1.5,None,2024-11-13 22h25.19.013376 +0530
0.7,1000,exp,3,2,38,8,219.5474345,,219.5394865,219.5474345,219.6470808,220.5471717,220.5471717,220.8839092,space,0.3206375,None,220.8854778,221.596561,221.9127808,221.900222,221.9002439,221.9127808,221.9127808,0.0005392,221.9127808,224.3666716,100,[0.02],[-0.32666666666666666],[1],[0],[0],[2.465079699999933],1,[2.4651905000000625],[2.4651960000001054],Final,1,2024-11-13_22h22.56.541,binding,2024.1.5,None,2024-11-13 22h25.19.013376 +0530
0.7,1000,exp,3,3,39,5,224.3797783,,224.3731163,224.3797783,224.4797158,225.3795676,225.3795676,225.4158388,space,0.0272452,None,225.4174901,226.1294061,,226.3905384,226.3905568,226.4120962,226.4120962,0.0004744,226.4120962,228.5830509,900,[0.02],[-0.32666666666666666],[1],[0],[0],[2.191115800000034],1,[2.191264300000057],[2.1912715000000844],Final,1,2024-11-13_22h22.56.541,binding,2024.1.5,None,2024-11-13 22h25.19.013376 +0530
0.1,1000,exp,3,4,40,9,228.5959613,,228.5893337,228.5959613,228.6957545,229.5959527,229.5959527,230.0151773,space,0.4095018,None,230.0167105,230.1288059,230.4288335,230.4181869,230.4182048,230.4288335,230.4288335,0.00047,230.4288335,233.3481677,120,[0.02],[-0.32666666666666666],[1],[0],[0],[2.9287171000000853],1,[2.9288166999999703],[2.928822299999865],Final,1,2024-11-13_22h22.56.541,binding,2024.1.5,None,2024-11-13 22h25.19.013376 +0530
0.4,1000,exp,3,5,41,4,233.3619302,,233.354571,233.3619302,233.4619661,234.3616406,234.3616406,234.5144916,space,0.1364522,None,234.5160522,234.9283517,,235.1784528,235.1784724,235.1942264,235.1942264,0.0005343,235.1942264,236.8825038,200,[0.02],[-0.32666666666666666],[1],[0],[0],[1.7027987999999823],1,[1.7029139999999643],[1.7029195000000072],Final,1,2024-11-13_22h22.56.541,binding,2024.1.5,None,2024-11-13 22h25.19.013376 +0530
0.4,1000,exp,3,6,42,7,236.8947906,,236.8889327,236.8947906,236.9948914,237.8944293,237.8944293,238.3141592,space,0.4120908,None,238.3156929,238.7280598,239.0442883,239.024432,239.0244512,239.0442883,239.0442883,0.0004735,239.0442883,240.5307344,200,[0.02],[-0.32666666666666666],[1],[0],[0],[1.5050906999999825],1,[1.5052022999998371],[1.50520779999988],Final,1,2024-11-13_22h22.56.541,binding,2024.1.5,None,2024-11-13 22h25.19.013376 +0530
0.7,1000,exp,3,7,43,11,240.5442915,,240.537129,240.5442915,240.644357,241.5441462,241.5441462,241.931234,space,0.3736747,None,241.9327704,242.6443857,,242.9187161,242.918735,242.9273589,242.9273589,0.0004594,242.9273589,244.6639123,100,[0.02],[-0.32666666666666666],[1],[0],[0],[1.7438421000001654],1,[1.7439527999999882],[1.743958799999973],Final,1,2024-11-13_22h22.56.541,binding,2024.1.5,None,2024-11-13 22h25.19.013376 +0530
0.1,1000,exp,3,8,44,6,244.6770187,,244.6704777,244.6770187,244.7771639,245.6770723,245.6770723,245.8963524,space,0.2089812,None,245.8979171,246.0102483,,246.2843277,246.2843458,246.293589,246.293589,0.0004549,246.293589,248.4297873,100,[0.02],[-0.32666666666666666],[1],[0],[0],[2.1442199999999048],1,[2.144326099999944],[2.1443314000000555],Final,1,2024-11-13_22h22.56.541,binding,2024.1.5,None,2024-11-13 22h25.19.013376 +0530
0.4,400,unexp,3,9,45,1,248.4433199,,248.4359964,248.4433199,248.5432275,249.4430357,249.4430357,249.5459278,space,0.0982601,None,249.5474849,249.9596721,250.2757904,250.259499,250.2595194,250.2757904,250.2757904,0.0005208,250.2757904,251.8296472,400,[0.02],[-0.32666666666666666],[1],[0],[0],[1.5688712999999552],1,[1.5689820999998574],[1.5689877999998316],Final,1,2024-11-13_22h22.56.541,binding,2024.1.5,None,2024-11-13 22h25.19.013376 +0530
0.4,1000,exp,3,10,46,10,251.8433271,,251.8359236,251.8433271,251.9428628,252.8435795,252.8435795,252.8786839,space,0.0238252,None,252.880233,253.2926135,,253.5734772,253.5734965,253.5918522,253.5918522,0.0004879,253.5918522,255.4289733,250,[0.02],[-0.32666666666666666],[1],[0],[0],[1.8541963999998643],1,[1.8542981999999029],[1.8543036999999458],Final,1,2024-11-13_22h22.56.541,binding,2024.1.5,None,2024-11-13 22h25.19.013376 +0530
0.1,1000,exp,3,11,47,3,255.4423141,,255.4354657,255.4423141,255.5423874,256.4420977,256.4420977,256.628986,space,0.1778486,None,256.6307104,256.7427855,257.0915292,257.0741964,257.0742186,257.0915292,257.0915292,0.0008008,257.0915292,258.7963768,200,[0.02],[-0.32666666666666666],[1],[0],[0],[1.7204047000000173],1,[1.7205588000001626],[1.720565699999952],Final,1,2024-11-13_22h22.56.541,binding,2024.1.5,None,2024-11-13 22h25.19.013376 +0530
0.4,1000,exp,4,0,48,4,258.808448,,258.8025873,258.808448,258.9094768,259.8084233,259.8084233,259.9777705,space,0.1534431,None,259.9793181,260.3919707,260.7409293,260.7231557,260.7231755,260.7409293,260.7409293,0.000572,260.7409293,263.3117101,120,[0.02],[-0.32666666666666666],[1],[0],[0],[2.5871609999999237],1,[2.5872684999999365],[2.5872744000000694],Final,1,2024-11-13_22h22.56.541,binding,2024.1.5,None,2024-11-13 22h25.19.013376 +0530
0.1,400,unexp,4,1,49,0,263.3248706,,263.3181059,263.3248706,263.4246604,264.324501,264.324501,264.4772783,space,0.1401521,None,264.4788197,264.5914293,264.891063,264.8826443,264.8826628,264.891063,264.891063,0.0004746,264.891063,266.5106054,300,[0.02],[-0.32666666666666666],[1],[0],[0],[1.6267872999999327],1,[1.6268987999999354],[1.626904599999989],Final,1,2024-11-13_22h22.56.541,binding,2024.1.5,None,2024-11-13 22h25.19.013376 +0530
0.7,400,unexp,4,2,50,2,266.5242429,,266.5170498,266.5242429,266.6241146,267.5240145,267.5240145,267.6103908,space,None,None,267.6119387,268.3244359,,268.5742429,268.5742624,268.5900021,268.5900021,0.000522,268.5900021,270.21023,800,[0.02],[-0.32666666666666666],[1],[0],[0],[1.634702999999945],1,[1.6348098999999365],[1.6348152999999002],Final,1,2024-11-13_22h22.56.541,binding,2024.1.5,None,2024-11-13 22h25.19.013376 +0530
0.1,1000,exp,4,3,51,9,270.2237822,,270.2165035,270.2237822,270.3237868,271.2240328,271.2240328,271.2607937,space,0.0288085,None,271.2624424,271.3734714,,271.6604538,271.6604748,271.6729188,271.6729188,0.0005503,271.6729188,273.227816,100,[0.02],[-0.32666666666666666],[1],[0],[0],[1.5658700999999837],1,[1.56601569999998],[1.5660235000000284],Final,1,2024-11-13_22h22.56.541,binding,2024.1.5,None,2024-11-13 22h25.19.013376 +0530
0.4,400,unexp,4,4,52,1,273.2399881,,273.2342139,273.2399881,273.3401876,274.2398773,274.2398773,274.2594827,space,0.0031193,None,274.2610651,274.6734086,274.9892336,274.9790507,274.9790714,274.9892336,274.9892336,0.0005396,274.9892336,276.6262597,200,[0.02],[-0.32666666666666666],[1],[0],[0],[1.6458929999998873],1,[1.6460030000000643],[1.6460087000000385],Final,1,2024-11-13_22h22.56.541,binding,2024.1.5,None,2024-11-13 22h25.19.013376 +0530
0.1,1000,exp,4,5,53,3,276.6395741,,276.6327207,276.6395741,276.7396029,277.6395113,277.6395113,277.7093831,space,0.0600599,None,277.7109545,277.8227187,,278.0948383,278.0948582,278.1053665,278.1053665,0.0016102,278.1053665,279.8593032,100,[0.02],[-0.32666666666666666],[1],[0],[0],[1.7621119999998882],1,[1.7621495000000778],[1.7621549000000414],Final,1,2024-11-13_22h22.56.541,binding,2024.1.5,None,2024-11-13 22h25.19.013376 +0530
0.1,1000,exp,4,6,54,6,279.8725507,,279.8656692,279.8725507,279.9727465,280.8725924,280.8725924,280.9761788,space,None,None,280.9777321,281.0890879,281.4383839,281.4154028,281.4154236,281.4383839,281.4383839,0.0005789,281.4383839,283.008347,100,[0.02],[-0.32666666666666666],[1],[0],[0],[1.5916389999999865],1,[1.5917421999999988],[1.591747899999973],Final,1,2024-11-13_22h22.56.541,binding,2024.1.5,None,2024-11-13 22h25.19.013376 +0530
0.4,1000,exp,4,7,55,7,283.022054,,283.0147691,283.022054,283.1224212,284.0217541,284.0217541,284.1262146,space,0.1035704,None,284.1293044,284.5385373,284.8545332,284.8320853,284.8321029,284.8545332,284.8545332,0.0004628,284.8545332,286.8582911,20,[0.02],[-0.32666666666666666],[1],[0],[0],[2.0250009999999747],1,[2.025115799999867],[2.0251215000000684],Final,1,2024-11-13_22h22.56.541,binding,2024.1.5,None,2024-11-13 22h25.19.013376 +0530
0.7,1000,exp,4,8,56,8,286.8716048,,286.8645525,286.8716048,286.9716447,287.8713465,287.8713465,287.9579373,space,0.0763486,None,287.9594664,288.6712845,,288.9422827,288.9423024,288.9539704,288.9539704,0.0005374,288.9539704,290.924322,10,[0.02],[-0.32666666666666666],[1],[0],[0],[1.9806823999999779],1,[1.9807894000000488],[1.9807948999998644],Final,1,2024-11-13_22h22.56.541,binding,2024.1.5,None,2024-11-13 22h25.19.013376 +0530
0.4,1000,exp,4,9,57,10,290.937719,,290.9307316,290.937719,291.0377915,291.937418,291.937418,292.1079204,space,0.1580774,None,292.1095733,292.5208201,,292.7807913,292.7808106,292.8032358,292.8032358,0.0004579,292.8032358,294.3405027,200,[0.02],[-0.32666666666666666],[1],[0],[0],[1.5585435999998936],1,[1.5586495000000014],[1.5586547000000337],Final,1,2024-11-13_22h22.56.541,binding,2024.1.5,None,2024-11-13 22h25.19.013376 +0530
0.7,1000,exp,4,10,58,11,294.3540805,,294.3468357,294.3540805,294.4545076,295.3544481,295.3544481,295.7569354,space,0.3976511,None,295.7584852,296.4705286,,296.7361459,296.7361657,296.7529345,296.7529345,0.0005575,296.7529345,298.3731856,100,[0.02],[-0.32666666666666666],[1],[0],[0],[1.6356984999999895],1,[1.6358072000000448],[1.6358130000000983],Final,1,2024-11-13_22h22.56.541,binding,2024.1.5,None,2024-11-13 22h25.19.013376 +0530
0.7,1000,exp,4,11,59,5,298.3870277,,298.3798481,298.3870277,298.4867759,299.3866885,299.3866885,299.5228085,space,0.1243569,None,299.5243779,300.2366517,,300.5141911,300.5142103,300.5357455,300.5357455,0.0004626,300.5357455,302.0561526,20,[0.02],[-0.32666666666666666],[1],[0],[0],[1.5407173999999486],1,[1.5408313000000362],[1.5408371000000898],Final,1,2024-11-13_22h22.56.541,binding,2024.1.5,None,2024-11-13 22h25.19.013376 +0530
0.7,1000,exp,5,0,60,8,302.0699134,,302.0625776,302.0699134,302.1695469,303.0694159,303.0694159,303.1892944,space,0.106921,None,303.1908511,303.9025937,304.202617,304.1911238,304.1911417,304.202617,304.202617,0.0005323,304.202617,305.7886223,500,[0.02],[-0.32666666666666666],[1],[0],[0],[1.5961844999999357],1,[1.5962859999999637],[1.596291299999848],Final,1,2024-11-13_22h22.56.541,binding,2024.1.5,None,2024-11-13 22h25.19.013376 +0530
0.7,1000,exp,5,1,61,11,305.8024771,,305.7949832,305.8024771,305.9023975,306.8022748,306.8022748,306.9382449,space,0.1272141,None,306.939779,307.6521545,,307.9001744,307.9001948,307.9181663,307.9181663,0.0005151,307.9181663,309.4051148,200,[0.02],[-0.32666666666666666],[1],[0],[0],[1.5037031000001662],1,[1.5038146000001689],[1.5038199000000532],Final,1,2024-11-13_22h22.56.541,binding,2024.1.5,None,2024-11-13 22h25.19.013376 +0530
0.4,1000,exp,5,2,62,10,309.4185434,,309.4116853,309.4185434,309.5186932,310.4183365,310.4183365,310.4553346,space,0.0271421,None,310.4569264,310.8684408,311.1683695,311.15899,311.1590075,311.1683695,311.1683695,0.0004844,311.1683695,313.1715034,10,[0.02],[-0.32666666666666666],[1],[0],[0],[2.0111614999998437],1,[2.011272700000063],[2.0112783000001855],Final,1,2024-11-13_22h22.56.541,binding,2024.1.5,None,2024-11-13 22h25.19.013376 +0530
0.7,1000,exp,5,3,63,5,313.1847614,,313.1779834,313.1847614,313.2846995,314.1845553,314.1845553,314.2709439,space,0.0786979,None,314.2725381,314.984586,,315.2362097,315.2362292,315.2505173,315.2505173,0.000527,315.2505173,316.0878056,400,[0.02],[-0.32666666666666666],[1],[0],[0],[0.8502662000000782],1,[0.850372200000038],[0.850377700000081],Final,1,2024-11-13_22h22.56.541,binding,2024.1.5,None,2024-11-13 22h25.19.013376 +0530
0.1,400,unexp,5,4,64,0,316.1011924,,316.0941672,316.1011924,316.2015764,317.1010092,317.1010092,317.1382251,space,0.0311101,None,317.139814,317.2513429,,317.5236277,317.5236485,317.5504761,317.5504761,0.0007783,317.5504761,325.2199742," 160
",[0.02],[-0.32666666666666666],[1],[0],[0],[7.694807899999887],1,[7.694346200000155],[7.6943518000000495],Final,1,2024-11-13_22h22.56.541,binding,2024.1.5,None,2024-11-13 22h25.19.013376 +0530
0.1,1000,exp,5,5,65,6,325.2338176,,325.2264508,325.2338176,325.3336197,326.2333804,326.2333804,326.4538448,space,0.2167738,None,326.4553976,326.5667362,,326.8193265,326.8193461,326.8323204,326.8323204,0.0005289,326.8323204,330.7856728,10,[0.02],[-0.32666666666666666],[1],[0],[0],[3.965087799999992],1,[3.965197400000079],[3.9652032000001327],Final,1,2024-11-13_22h22.56.541,binding,2024.1.5,None,2024-11-13 22h25.19.013376 +0530
0.4,400,unexp,5,6,66,1,330.7993005,,330.7919975,330.7993005,330.8991316,331.7995322,331.7995322,333.3360487,space,1.5231216,None,333.3375762,333.7488021,,334.0202932,334.0203132,334.0316199,334.0316199,0.000524,334.0316199,335.701905,20,[0.02],[-0.32666666666666666],[1],[0],[0],[1.6803476000000046],1,[1.6804557999998906],[1.680461699999796],Final,1,2024-11-13_22h22.56.541,binding,2024.1.5,None,2024-11-13 22h25.19.013376 +0530
0.1,1000,exp,5,7,67,9,335.7152624,,335.7085386,335.7152624,335.8155043,336.7151639,336.7151639,336.834351,space,0.1043231,None,336.8359279,336.9482864,337.2645025,337.249624,337.2496501,337.2645025,337.2645025,0.0005644,337.2645025,338.3860088,10,[0.02],[-0.32666666666666666],[1],[0],[0],[1.13491369999997],1,[1.1350755999999365],[1.135083300000133],Final,1,2024-11-13_22h22.56.541,binding,2024.1.5,None,2024-11-13 22h25.19.013376 +0530
0.7,400,unexp,5,8,68,2,338.3982948,,338.3925352,338.3982948,338.4983224,339.3981684,339.3981684,339.5509404,space,0.1432638,None,339.5524688,340.264604,340.5807137,340.5675323,340.5675511,340.5807137,340.5807137,0.0005262,340.5807137,345.1839494,250,[0.02],[-0.32666666666666666],[1],[0],[0],[4.615161299999954],1,[4.615272600000026],[4.615278800000169],Final,1,2024-11-13_22h22.56.541,binding,2024.1.5,None,2024-11-13 22h25.19.013376 +0530
0.4,1000,exp,5,9,69,7,345.197362,,345.1904118,345.197362,345.2973438,346.1971692,346.1971692,346.2176409,space,0.0101037,None,346.2191733,346.6304042,,346.8953484,346.8953681,346.9132664,346.9132664,0.0005049,346.9132664,347.9336951,100,[0.02],[-0.32666666666666666],[1],[0],[0],[1.0370723000000908],1,[1.0371790000003784],[1.0371844999999666],Final,1,2024-11-13_22h22.56.541,binding,2024.1.5,None,2024-11-13 22h25.19.013376 +0530
0.1,1000,exp,5,10,70,3,347.9471313,,347.9401003,347.9471313,348.0469856,348.946868,348.946868,349.1161839,space,0.1601329,None,349.1177241,349.2300981,,349.5194155,349.5194362,349.5297373,349.5297373,0.0005497,349.5297373,351.1995394,90,[0.02],[-0.32666666666666666],[1],[0],[0],[1.678825400000278],1,[1.6789309999999205],[1.6789364999999634],Final,1,2024-11-13_22h22.56.541,binding,2024.1.5,None,2024-11-13 22h25.19.013376 +0530
0.4,1000,exp,5,11,71,4,351.2135516,,351.2059604,351.2135516,351.3133003,352.2130126,352.2130126,352.2329057,space,0.0155605,None,352.2344957,352.6463805,352.9629226,352.9489342,352.9489535,352.9629226,352.9629226,0.0004584,352.9629226,357.2500792,400,[0.02],[-0.32666666666666666],[1],[0],[0],[4.299770600000102],1,[4.299918499999876],[4.299925999999687],Final,1,2024-11-13_22h22.56.541,binding,2024.1.5,None,2024-11-13 22h25.19.013376 +0530
0.7,1000,exp,6,0,72,8,357.262511,,357.2565327,357.262511,357.3624253,358.2622605,358.2622605,358.2653421,space,0.0019795,None,358.2668785,358.9790414,359.2948253,359.2790111,359.2790313,359.2948253,359.2948253,0.0005534,359.2948253,360.6658649,600,[0.02],[-0.32666666666666666],[1],[0],[0],[1.3854727999996612],1,[1.3855846999999812],[1.3855904000001829],Final,1,2024-11-13_22h22.56.541,binding,2024.1.5,None,2024-11-13 22h25.19.013376 +0530
0.7,1000,exp,6,1,73,11,360.6785117,,360.6722235,360.6785117,360.7790039,361.6784426,361.6784426,361.7147624,space,0.0226168,None,361.7163417,362.4287349,362.7444196,362.7260567,362.7260755,362.7444196,362.7444196,0.0005221,362.7444196,363.7993245,800,[0.02],[-0.32666666666666666],[1],[0],[0],[1.0720121000003928],1,[1.0721417999998266],[1.0721476999997321],Final,1,2024-11-13_22h22.56.541,binding,2024.1.5,None,2024-11-13 22h25.19.013376 +0530
0.4,400,unexp,6,2,74,1,363.8114733,,363.8056805,363.8114733,363.9122636,364.811396,364.811396,364.9978348,space,0.1809265,None,364.9993831,365.4113519,365.7272341,365.7100684,365.7100873,365.7272341,365.7272341,0.0005075,365.7272341,366.7810401,100,[0.02],[-0.32666666666666666],[1],[0],[0],[1.0696376000000782],1,[1.0697470999998586],[1.069752299999891],Final,1,2024-11-13_22h22.56.541,binding,2024.1.5,None,2024-11-13 22h25.19.013376 +0530
0.4,1000,exp,6,3,75,10,366.7945748,,366.787467,366.7945748,366.8945218,367.7947739,367.7947739,367.8306778,space,0.028726,None,367.8322352,368.2441761,,368.5330914,368.5331118,368.5435775,368.5435775,0.0005295,368.5435775,369.5811187,100,[0.02],[-0.32666666666666666],[1],[0],[0],[1.0467430999997305],1,[1.0468525999999656],[1.046857799999998],Final,1,2024-11-13_22h22.56.541,binding,2024.1.5,None,2024-11-13 22h25.19.013376 +0530
0.1,400,unexp,6,4,76,0,369.5941385,,369.5877294,369.5941385,369.694317,370.5941714,370.5941714,370.6969785,space,0.0927685,None,370.6985038,370.8105676,371.1109063,371.0988543,371.0988729,371.1109063,371.1109063,0.0005867,371.1109063,374.6464171,50,[0.02],[-0.32666666666666666],[1],[0],[0],[3.5462006999996447],1,[3.5463011000001643],[3.5463066000002073],Final,1,2024-11-13_22h22.56.541,binding,2024.1.5,None,2024-11-13 22h25.19.013376 +0530
0.1,1000,exp,6,5,77,9,374.6602586,,374.6529322,374.6602586,374.7604953,375.6599202,375.6599202,375.9295436,space,0.2532261,None,375.9310832,376.0438931,376.3924488,376.3798882,376.3799089,376.3924488,376.3924488,0.0005416,376.3924488,377.5133683,10,[0.02],[-0.32666666666666666],[1],[0],[0],[1.1321447000000262],1,[1.1322413000002598],[1.132246699999996],Final,1,2024-11-13_22h22.56.541,binding,2024.1.5,None,2024-11-13 22h25.19.013376 +0530
0.7,1000,exp,6,6,78,5,377.5264963,,377.520059,377.5264963,377.626398,378.526457,378.526457,378.6124852,space,0.0700051,None,378.6140656,379.3261011,,379.5812439,379.5812641,379.5921667,379.5921667,0.0005259,379.5921667,382.0621166,200,[0.02],[-0.32666666666666666],[1],[0],[0],[2.47959340000034],1,[2.4797615000002224],[2.4797671000001174],Final,1,2024-11-13_22h22.56.541,binding,2024.1.5,None,2024-11-13 22h25.19.013376 +0530
0.4,1000,exp,6,7,79,7,382.0757531,,382.0689165,382.0757531,382.1761382,383.0757702,383.0757702,383.0953019,space,0.0050079,None,383.0968987,383.5090223,,383.7849049,383.7849238,383.8082149,383.8082149,0.0004578,383.8082149,384.6617575,100,[0.02],[-0.32666666666666666],[1],[0],[0],[0.8756422000001294],1,[0.875746799999888],[0.8757521999996243],Final,1,2024-11-13_22h22.56.541,binding,2024.1.5,None,2024-11-13 22h25.19.013376 +0530
0.4,1000,exp,6,8,80,4,384.6756512,,384.6681945,384.6756512,384.7754338,385.6754019,385.6754019,385.7615547,space,0.080388,None,385.7631145,386.1751914,386.4913201,386.477149,386.4771678,386.4913201,386.4913201,0.0005314,386.4913201,387.3281824,10,[0.02],[-0.32666666666666666],[1],[0],[0],[0.8496863999998823],1,[0.8497922999999901],[0.849797800000033],Final,1,2024-11-13_22h22.56.541,binding,2024.1.5,None,2024-11-13 22h25.19.013376 +0530
0.1,1000,exp,6,9,81,3,387.341893,,387.334543,387.341893,387.441894,388.3416402,388.3416402,388.3782396,space,0.0344866,None,388.3797874,388.4916719,388.8077427,388.7889155,388.788934,388.8077427,388.8077427,0.0004741,388.8077427,390.395941,10,[0.02],[-0.32666666666666666],[1],[0],[0],[1.6056713999996646],1,[1.6057944999997744],[1.605800100000124],Final,1,2024-11-13_22h22.56.541,binding,2024.1.5,None,2024-11-13 22h25.19.013376 +0530
0.1,1000,exp,6,10,82,6,390.4080139,,390.402372,390.4080139,390.5081552,391.4080069,391.4080069,391.7781682,space,0.3639659,None,391.7797408,391.8913283,,392.1422388,392.1422586,392.1572436,392.1572436,0.0005274,392.1572436,393.8775211,20-,[0.02],[-0.32666666666666666],[1],[0],[0],[1.7340110000000095],1,[1.7341185000000223],[1.7341237000000547],Final,1,2024-11-13_22h22.56.541,binding,2024.1.5,None,2024-11-13 22h25.19.013376 +0530
0.7,400,unexp,6,11,83,2,393.8909972,,393.8839038,393.8909972,393.9910448,394.8908504,394.8908504,395.2944044,space,0.4024142,None,395.2959649,396.0073636,396.3232745,396.3002626,396.3002819,396.3232745,396.3232745,0.0005106,396.3232745,399.5942301,150,[0.02],[-0.32666666666666666],[1],[0],[0],[3.2925201000002744],1,[3.292668000000049],[3.292675000000145],Final,1,2024-11-13_22h22.56.541,binding,2024.1.5,None,2024-11-13 22h25.19.013376 +0530
0.1,1000,exp,7,0,84,3,399.607538,,399.6007413,399.607538,399.7070146,400.6067848,400.6067848,400.6440141,space,None,None,400.645555,400.7567636,,401.0330024,401.0330216,401.0559357,401.0559357,0.0007152,401.0559357,402.0596865,10,[0.02],[-0.32666666666666666],[1],[0],[0],[1.0250909999999749],1,[1.0251149999999143],[1.025122999999894],Final,1,2024-11-13_22h22.56.541,binding,2024.1.5,None,2024-11-13 22h25.19.013376 +0530
0.7,1000,exp,7,1,85,8,402.0735383,,402.0663602,402.0735383,402.1732489,403.0731378,403.0731378,403.0938766,space,0.0041173,None,403.0956413,403.8064588,404.1221905,404.1029371,404.1029564,404.1221905,404.1221905,0.0005306,404.1221905,405.1425145,20,[0.02],[-0.32666666666666666],[1],[0],[0],[1.0383614000002126],1,[1.0384738999996443],[1.038479499999994],Final,1,2024-11-13_22h22.56.541,binding,2024.1.5,None,2024-11-13 22h25.19.013376 +0530
0.1,1000,exp,7,2,86,6,405.1560622,,405.148754,405.1560622,405.2562337,406.1559304,406.1559304,406.1766671,space,0.0129347,None,406.1781856,406.2893492,406.6052645,406.5948353,406.5948566,406.6052645,406.6052645,0.0005369,406.6052645,408.0422659,10,[0.02],[-0.32666666666666666],[1],[0],[0],[1.4461403999998765],1,[1.4462469000000056],[1.4462526999996044],Final,1,2024-11-13_22h22.56.541,binding,2024.1.5,None,2024-11-13 22h25.19.013376 +0530
0.1,400,unexp,7,3,87,0,408.0558937,,408.0487164,408.0558937,408.1557984,409.0555973,409.0555973,409.1084202,space,0.0376246,None,409.1099868,409.2225063,409.5882131,409.5758357,409.5758607,409.5882131,409.5882131,0.0005581,409.5882131,412.0584288,56,[0.02],[-0.32666666666666666],[1],[0],[0],[2.48120629999994],1,[2.481272099999842],[2.481277399999726],Final,1,2024-11-13_22h22.56.541,binding,2024.1.5,None,2024-11-13 22h25.19.013376 +0530
0.7,1000,exp,7,4,88,11,412.0720771,,412.0658829,412.0720771,412.1719738,413.072049,413.072049,413.1248989,space,0.0489779,None,413.1264849,413.8382866,414.1554903,414.1320425,414.1320607,414.1554903,414.1554903,0.0004782,414.1554903,416.8412867,156,[0.02],[-0.32666666666666666],[1],[0],[0],[2.707991899999797],1,[2.7080989999999474],[2.7081044999999904],Final,1,2024-11-13_22h22.56.541,binding,2024.1.5,None,2024-11-13 22h25.19.013376 +0530
0.7,400,unexp,7,5,89,2,416.8546111,,416.8475793,416.8546111,416.9549901,417.8545947,417.8545947,418.0077189,space,0.1504053,None,418.0092558,418.721182,419.0371289,419.017842,419.0178594,419.0371289,419.0371289,0.0004785,419.0371289,419.9743843,450,[0.02],[-0.32666666666666666],[1],[0],[0],[0.9552764000000025],1,[0.9553965999998582],[0.955402299999605],Final,1,2024-11-13_22h22.56.541,binding,2024.1.5,None,2024-11-13 22h25.19.013376 +0530
0.4,1000,exp,7,6,90,10,419.9875485,,419.9808962,419.9875485,420.0876105,420.9874039,420.9874039,421.0245661,space,0.0278444,None,421.0260952,421.4376802,421.7532443,421.7444497,421.7444708,421.7532443,421.7532443,0.0005527,421.7532443,422.9236368,10,[0.02],[-0.32666666666666666],[1],[0],[0],[1.1778819999999541],1,[1.1779881999996178],[1.1779935999998088],Final,1,2024-11-13_22h22.56.541,binding,2024.1.5,None,2024-11-13 22h25.19.013376 +0530
0.7,1000,exp,7,7,91,5,422.9371346,,422.9300608,422.9371346,423.0381219,423.9371296,423.9371296,424.057813,space,0.1148178,None,424.0594368,424.770211,,425.0191692,425.0191898,425.0362957,425.0362957,0.0008968,425.0362957,426.1743679,700,[0.02],[-0.32666666666666666],[1],[0],[0],[1.153397600000062],1,[1.1535613000000922],[1.1535685000003468],Final,1,2024-11-13_22h22.56.541,binding,2024.1.5,None,2024-11-13 22h25.19.013376 +0530
0.1,1000,exp,7,8,92,9,426.1867151,,426.1809151,426.1867151,426.2868967,427.186635,427.186635,427.2062918,space,0.0107192,None,427.2078419,427.3200035,427.6359839,427.617728,427.6177456,427.6359839,427.6359839,0.0004973,427.6359839,430.4732476,300,[0.02],[-0.32666666666666666],[1],[0],[0],[2.854275499999858],1,[2.854410899999948],[2.8544173999998748],Final,1,2024-11-13_22h22.56.541,binding,2024.1.5,None,2024-11-13 22h25.19.013376 +0530
0.4,1000,exp,7,9,93,7,430.486202,,430.4797147,430.486202,430.5862149,431.48633,431.48633,431.5390084,space,0.0403656,None,431.5405806,431.9528475,,432.2224244,432.2224421,432.2352374,432.2352374,0.0005267,432.2352374,433.5567957,100,[0.02],[-0.32666666666666666],[1],[0],[0],[1.3331711000000723],1,[1.3332846999996946],[1.3332900999998856],Final,1,2024-11-13_22h22.56.541,binding,2024.1.5,None,2024-11-13 22h25.19.013376 +0530
0.4,400,unexp,7,10,94,1,433.5692827,,433.5631081,433.5692827,433.6692092,434.5689407,434.5689407,434.6219869,space,0.0374528,None,434.6234774,435.0355208,,435.3150854,435.3151047,435.335037,435.335037,0.0004778,435.335037,436.2217791,100,[0.02],[-0.32666666666666666],[1],[0],[0],[0.9054278999997223],1,[0.9055295999996815],[0.9055350999997245],Final,1,2024-11-13_22h22.56.541,binding,2024.1.5,None,2024-11-13 22h25.19.013376 +0530
0.4,1000,exp,7,11,95,4,436.235576,,436.22844,436.235576,436.3353215,437.2353645,437.2353645,437.3550836,space,0.1155276,None,437.3567016,437.7687655,,438.0209968,438.0210169,438.0345134,438.0345134,0.0005167,438.0345134,440.2212698,100,[0.02],[-0.32666666666666666],[1],[0],[0],[2.199026100000083],1,[2.1991299000001163],[2.1991351000001487],Final,1,2024-11-13_22h22.56.541,binding,2024.1.5,None,2024-11-13 22h25.19.013376 +0530
0.1,1000,exp,8,0,96,9,440.2351015,,440.2282358,440.2351015,440.3349201,441.2348345,441.2348345,441.2542771,space,0.0076766,None,441.2558254,441.3684615,,441.6309658,441.6309827,441.6505856,441.6505856,0.0004598,441.6505856,443.1212033,290,[0.02],[-0.32666666666666666],[1],[0],[0],[1.488949799999773],1,[1.4890497000001233],[1.4890551000003143],Final,1,2024-11-13_22h22.56.541,binding,2024.1.5,None,2024-11-13 22h25.19.013376 +0530
0.1,1000,exp,8,1,97,6,443.1345769,,443.1275852,443.1345769,443.2350097,444.1346906,444.1346906,444.2214737,space,0.0740738,None,444.2230211,444.3344682,,444.5853558,444.5853757,444.600484,444.600484,0.0005369,444.600484,447.4207877,190,[0.02],[-0.32666666666666666],[1],[0],[0],[2.8340313000003334],1,[2.8341418999998496],[2.8341473999998925],Final,1,2024-11-13_22h22.56.541,binding,2024.1.5,None,2024-11-13 22h25.19.013376 +0530
0.1,400,unexp,8,2,98,0,447.4340983,,447.4272297,447.4340983,447.5341059,448.4339553,448.4339553,448.5203421,space,0.0826589,None,448.5219156,448.6338338,448.9498327,448.9396805,448.9397012,448.9498327,448.9498327,0.000766,448.9498327,450.3704785,200,[0.02],[-0.32666666666666666],[1],[0],[0],[1.4292373999996926],1,[1.4290734000001066],[1.4290789000001496],Final,1,2024-11-13_22h22.56.541,binding,2024.1.5,None,2024-11-13 22h25.19.013376 +0530
0.4,1000,exp,8,3,99,4,450.3837094,,450.3771182,450.3837094,450.4837903,451.3835635,451.3835635,451.802937,space,0.4097527,None,451.8044831,452.2166045,452.565809,452.5427861,452.5428073,452.565809,452.565809,0.0005406,452.565809,454.7193927,160,[0.02],[-0.32666666666666666],[1],[0],[0],[2.1752920999997514],1,[2.1753984000001765],[2.17540340000005],Final,1,2024-11-13_22h22.56.541,binding,2024.1.5,None,2024-11-13 22h25.19.013376 +0530
0.4,1000,exp,8,4,100,10,454.7330192,,454.7257839,454.7330192,454.8330623,455.7330272,455.7330272,455.7856815,space,0.0376394,None,455.78726,456.1995935,,456.4708281,456.4708486,456.4822225,456.4822225,0.0005405,456.4822225,458.6702037,79,[0.02],[-0.32666666666666666],[1],[0],[0],[2.198012700000163],1,[2.198170499999833],[2.198177400000077],Final,1,2024-11-13_22h22.56.541,binding,2024.1.5,None,2024-11-13 22h25.19.013376 +0530
0.4,400,unexp,8,5,101,1,458.6824849,,458.676425,458.6824849,458.782507,459.6827007,459.6827007,459.7019955,space,0.0155883,None,459.7035343,460.1155817,460.4318193,460.4185074,460.4185277,460.4318193,460.4318193,0.0005162,460.4318193,461.5019608,120,[0.02],[-0.32666666666666666],[1],[0],[0],[1.0822769999999764],1,[1.0823834000002535],[1.0823886000002858],Final,1,2024-11-13_22h22.56.541,binding,2024.1.5,None,2024-11-13 22h25.19.013376 +0530
0.4,1000,exp,8,6,102,7,461.515402,,461.5084288,461.515402,461.6160144,462.5154575,462.5154575,462.5515335,space,0.0228732,None,462.5531323,462.9652816,463.3147723,463.2957468,463.2957677,463.3147723,463.3147723,0.0005726,463.3147723,464.5692528,800,[0.02],[-0.32666666666666666],[1],[0],[0],[1.2721825999997236],1,[1.2722951000000648],[1.2723007999998117],Final,1,2024-11-13_22h22.56.541,binding,2024.1.5,None,2024-11-13 22h25.19.013376 +0530
0.7,400,unexp,8,7,103,2,464.581753,,464.5754251,464.581753,464.681784,465.5816416,465.5816416,465.6010047,space,0.0084548,None,465.6025917,466.3148228,,466.5587991,466.5588219,466.5812087,466.5812087,0.0004746,466.5812087,467.3510913,10,[0.02],[-0.32666666666666666],[1],[0],[0],[0.7910912000002099],1,[0.7912033000002339],[0.7912086999999701],Final,1,2024-11-13_22h22.56.541,binding,2024.1.5,None,2024-11-13 22h25.19.013376 +0530
0.7,1000,exp,8,8,104,5,467.3646858,,467.3575405,467.3646858,467.4647552,468.3645823,468.3645823,468.4005058,space,0.0290726,None,468.4020889,469.1145342,,469.4022922,469.4023122,469.413737,469.413737,0.0005347,469.413737,470.3009435,20,[0.02],[-0.32666666666666666],[1],[0],[0],[0.8973555999996279],1,[0.8974626999997781],[0.8974683999999797],Final,1,2024-11-13_22h22.56.541,binding,2024.1.5,None,2024-11-13 22h25.19.013376 +0530
0.1,1000,exp,8,9,105,3,470.3145037,,470.3073427,470.3145037,470.4144862,471.3141729,471.3141729,471.3343203,space,0.0160708,None,471.3358675,471.4475306,,471.7327574,471.7327772,471.7468899,471.7468899,0.0005283,471.7468899,473.6849179,97,[0.02],[-0.32666666666666666],[1],[0],[0],[1.9508341999999175],1,[1.9509954999998627],[1.9510028999998212],Final,1,2024-11-13_22h22.56.541,binding,2024.1.5,None,2024-11-13 22h25.19.013376 +0530
0.7,1000,exp,8,10,106,8,473.6973522,,473.6913376,473.6973522,473.7974366,474.6974509,474.6974509,474.7343441,space,0.028436,None,474.7359806,475.4472326,,475.725055,475.7250736,475.7463909,475.7463909,0.000483,475.7463909,480.3833803,10,[0.02],[-0.32666666666666666],[1],[0],[0],[4.657090000000153],1,[4.657185600000048],[4.657190899999932],Final,1,2024-11-13_22h22.56.541,binding,2024.1.5,None,2024-11-13 22h25.19.013376 +0530
0.7,1000,exp,8,11,107,11,480.3964565,,480.3899096,480.3964565,480.4965142,481.3962442,481.3962442,498.296727,space,16.8886098,None,498.2983131,499.0104679,499.3265778,499.3027393,499.3027587,499.3265778,499.3265778,0.000486,499.3265778,500.4986426,80,[0.02],[-0.32666666666666666],[1],[0],[0],[1.1946081999999478],1,[1.1947157999998126],[1.1947215999998662],Final,1,2024-11-13_22h22.56.541,binding,2024.1.5,None,2024-11-13 22h25.19.013376 +0530
0.4,1000,exp,9,0,108,4,500.5104855,,500.5050607,500.5104855,500.610502,501.5103934,501.5103934,501.6132045,space,0.0955697,None,501.614793,502.0267067,,502.3121639,502.3121845,502.326195,502.326195,0.0005304,502.326195,504.8130519,80,[0.02],[-0.32666666666666666],[1],[0],[0],[2.49957859999995],1,[2.4996869999999944],[2.4996924000001854],Final,1,2024-11-13_22h22.56.541,binding,2024.1.5,None,2024-11-13 22h25.19.013376 +0530
0.4,1000,exp,9,1,109,10,504.8265357,,504.8192578,504.8265357,504.9265475,505.826436,505.826436,505.9802495,space,0.1378376,None,505.9817954,506.3929049,,506.678832,506.6788528,506.6923471,506.6923471,0.0005236,506.6923471,512.2456645,890,[0.02],[-0.32666666666666666],[1],[0],[0],[5.565567900000133],1,[5.5656755999998495],[5.565680799999882],Final,1,2024-11-13_22h22.56.541,binding,2024.1.5,None,2024-11-13 22h25.19.013376 +0530
0.1,1000,exp,9,2,110,6,512.258997,,512.2520956,512.258997,512.3590803,513.2588675,513.2588675,522.8615654,space,9.5888857,None,522.8631428,522.974079,523.2902249,523.2755817,523.2756007,523.2902249,523.2902249,0.0005586,523.2902249,524.8101293,290,[0.02],[-0.32666666666666666],[1],[0],[0],[1.5333056999998007],1,[1.5334136999999828],[1.5334192000000257],Final,1,2024-11-13_22h22.56.541,binding,2024.1.5,None,2024-11-13 22h25.19.013376 +0530
0.1,1000,exp,9,3,111,9,524.8239634,,524.8165624,524.8239634,524.924367,525.8239298,525.8239298,525.8771634,space,0.0494904,None,525.8788133,525.9904918,,526.2590282,526.2590478,526.2730836,526.2730836,0.0005311,526.2730836,527.9933707,890,[0.02],[-0.32666666666666666],[1],[0],[0],[1.733048399999916],1,[1.7331718000000365],[1.7331774000003861],Final,1,2024-11-13_22h22.56.541,binding,2024.1.5,None,2024-11-13 22h25.19.013376 +0530
0.1,1000,exp,9,4,112,3,528.0069333,,527.9997146,528.0069333,528.1068943,529.0067859,529.0067859,529.0430211,space,0.0214085,None,529.0445436,529.1570266,,529.4444608,529.4444813,529.4560619,529.4560619,0.0005378,529.4560619,539.5441723,,[0.02],[-0.32666666666666666],[1],[0],[0],[10.098214699999971],1,[10.098404899999878],[10.098413499999879],Final,1,2024-11-13_22h22.56.541,binding,2024.1.5,None,2024-11-13 22h25.19.013376 +0530
0.7,1000,exp,9,5,113,5,539.5716429,,539.5553243,539.5716429,539.6557264,540.556098,540.572456,541.3587296,space,0.7872504,None,541.3603716,542.0716916,542.3875028,542.3654519,542.3654669,542.3875028,542.3875028,0.0004538,542.3875028,545.7078617,200,[0.02],[-0.32666666666666666],[1],[0],[0],[3.3411997999996856],1,[3.341312300000027],[3.34131780000007],Final,1,2024-11-13_22h22.56.541,binding,2024.1.5,None,2024-11-13 22h25.19.013376 +0530
0.1,400,unexp,9,6,114,0,545.721361,,545.7143788,545.721361,545.82133,546.7213635,546.7213635,547.1082196,space,0.3771332,None,547.1097718,547.2209487,547.5370806,547.5256794,547.525699,547.5370806,547.5370806,0.0005439,547.5370806,551.9735705,400,[0.02],[-0.32666666666666666],[1],[0],[0],[4.446580300000278],1,[4.446689699999752],[4.446694899999784],Final,1,2024-11-13_22h22.56.541,binding,2024.1.5,None,2024-11-13 22h25.19.013376 +0530
0.4,1000,exp,9,7,115,7,551.9870332,,551.9801136,551.9870332,552.0870451,552.9870202,552.9870202,553.02414,space,None,None,553.0256764,553.4373992,,553.7108922,553.7109107,553.7201359,553.7201359,0.0004749,553.7201359,555.9075767,120,[0.02],[-0.32666666666666666],[1],[0],[0],[2.195312400000148],1,[2.195470099999966],[2.195477600000231],Final,1,2024-11-13_22h22.56.541,binding,2024.1.5,None,2024-11-13 22h25.19.013376 +0530
0.7,1000,exp,9,8,116,11,555.935902,,555.9172164,555.935902,556.0199568,556.9198026,556.9366252,557.0391582,space,0.1022524,None,557.042194,557.7529393,558.0690315,558.0516917,558.0517117,558.0690315,558.0690315,0.000631,558.0690315,559.4562317,700,[0.02],[-0.32666666666666666],[1],[0],[0],[1.4031450000002224],1,[1.4032523000000765],[1.4032578000001195],Final,1,2024-11-13_22h22.56.541,binding,2024.1.5,None,2024-11-13 22h25.19.013376 +0530
0.4,400,unexp,9,9,117,1,559.4694574,,559.4628761,559.4694574,559.5695286,560.4693435,560.4693435,560.655499,space,0.1695937,None,560.6570754,561.0691149,,561.3351723,561.3351919,561.3520537,561.3520537,0.000539,561.3520537,563.0066292,200,[0.02],[-0.32666666666666666],[1],[0],[0],[1.6700012000001152],1,[1.6701521999998477],[1.6701594000001023],Final,1,2024-11-13_22h22.56.541,binding,2024.1.5,None,2024-11-13 22h25.19.013376 +0530
0.7,1000,exp,9,10,118,8,563.0190512,,563.0130601,563.0190512,563.1189593,564.0189443,564.0189443,564.1383637,space,0.111784,None,564.1399813,564.8520128,565.1520544,565.1417323,565.1417519,565.1520544,565.1520544,0.0004741,565.1520544,567.155826,900,[0.02],[-0.32666666666666666],[1],[0],[0],[2.0126038000003064],1,[2.01271639999959],[2.012721899999633],Final,1,2024-11-13_22h22.56.541,binding,2024.1.5,None,2024-11-13 22h25.19.013376 +0530
0.7,400,unexp,9,11,119,2,567.1688298,,567.1623758,567.1688298,567.268394,568.1683552,568.1683552,568.2550198,space,0.0755564,None,568.2566016,568.9683148,,569.2479897,569.2480079,569.2674763,569.2674763,0.0004533,569.2674763,570.737652,700,[0.02],[-0.32666666666666666],[1],[0],[0],[1.4884946000001946],1,[1.488605500000176],[1.4886107000002085],Final,1,2024-11-13_22h22.56.541,binding,2024.1.5,None,2024-11-13 22h25.19.013376 +0530
0.4,400,unexp,10,0,120,1,570.7513232,,570.7440669,570.7513232,570.8514249,571.7512357,571.7512357,571.855055,space,0.0952205,None,571.8567025,572.2678291,,572.5155878,572.5156073,572.5336189,572.5336189,0.0004901,572.5336189,574.0374891,700,[0.02],[-0.32666666666666666],[1],[0],[0],[1.5205025999998725],1,[1.5206088999998428],[1.5206146000000444],Final,1,2024-11-13_22h22.56.541,binding,2024.1.5,None,2024-11-13 22h25.19.013376 +0530
0.4,1000,exp,10,1,121,7,574.0509773,,574.0437621,574.0509773,574.150953,575.0507056,575.0507056,575.2038268,space,0.1400114,None,575.2053905,575.6173298,575.9499981,575.9367365,575.9367584,575.9499981,575.9499981,0.0007397,575.9499981,577.8382117,200,[0.02],[-0.32666666666666666],[1],[0],[0],[1.8999189000001024],1,[1.9000786999999946],[1.9000863000001118],Final,1,2024-11-13_22h22.56.541,binding,2024.1.5,None,2024-11-13 22h25.19.013376 +0530
0.7,1000,exp,10,2,122,5,577.8502333,,577.8450319,577.8502333,577.9505421,578.8502874,578.8502874,578.9702605,space,0.1126054,None,578.9718237,579.6834714,579.9994832,579.9756829,579.9757018,579.9994832,579.9994832,0.0006046,579.9994832,581.4032509,800,[0.02],[-0.32666666666666666],[1],[0],[0],[1.42608539999992],1,[1.4262512999998762],[1.4262585000001309],Final,1,2024-11-13_22h22.56.541,binding,2024.1.5,None,2024-11-13 22h25.19.013376 +0530
0.1,1000,exp,10,3,123,6,581.4166979,,581.4095518,581.4166979,581.5165544,582.4164286,582.4164286,582.5196796,space,0.0985275,None,582.5212983,582.6331198,,582.9195352,582.9195557,582.9325017,582.9325017,0.000528,582.9325017,584.9027248,100,[0.02],[-0.32666666666666666],[1],[0],[0],[1.981847900000048],1,[1.9819512999997642],[1.981956899999659],Final,1,2024-11-13_22h22.56.541,binding,2024.1.5,None,2024-11-13 22h25.19.013376 +0530
0.4,1000,exp,10,4,124,4,584.9163636,,584.9094736,584.9163636,585.0161397,585.9159898,585.9159898,585.9856236,space,None,None,585.9871443,586.399294,,586.6517113,586.6517309,586.6653198,586.6653198,0.0005121,586.6653198,587.7702054,800,[0.02],[-0.32666666666666666],[1],[0],[0],[1.1170670000001337],1,[1.1172249000001102],[1.1172319000002062],Final,1,2024-11-13_22h22.56.541,binding,2024.1.5,None,2024-11-13 22h25.19.013376 +0530
0.1,1000,exp,10,5,125,3,587.7825865,,587.7764736,587.7825865,587.882456,588.7823148,588.7823148,588.9186619,space,None,None,588.920209,589.0321917,,589.2696594,589.2696767,589.2822904,589.2822904,0.0004401,589.2822904,591.5521469,129,[-0.018333333333333333],[-0.4266666666666667],[1],[0],[0],[2.281301600000006],0,,,Final,1,2024-11-13_22h22.56.541,binding,2024.1.5,None,2024-11-13 22h25.19.013376 +0530
0.7,1000,exp,10,6,126,11,591.565641,,591.558331,591.565641,591.6653291,592.5651159,592.5651159,594.0850273,space,1.5147545,None,594.0865668,594.798303,,595.0868279,595.0868482,595.0975829,595.0975829,0.0005371,595.0975829,598.3181407,300,[-0.03],[-0.275],[1],[0],[0],[3.2300091999995857],1,[3.2301158000000214],[3.230120799999895],Final,1,2024-11-13_22h22.56.541,binding,2024.1.5,None,2024-11-13 22h25.19.013376 +0530
0.1,400,unexp,10,7,127,0,598.3310831,,598.3245317,598.3310831,598.4311771,599.3308664,599.3308664,600.0334627,space,0.6858399,None,600.0349887,600.1475958,600.4634022,600.4398388,600.4398577,600.4634022,600.4634022,0.0004701,600.4634022,602.3509154,200,[-0.03],[-0.275],[1],[0],[0],[1.9097415999999612],1,[1.909857799999827],[1.9098633999997219],Final,1,2024-11-13_22h22.56.541,binding,2024.1.5,None,2024-11-13 22h25.19.013376 +0530
0.4,1000,exp,10,8,128,10,602.3638109,,602.3574541,602.3638109,602.4639006,603.3642353,603.3642353,603.4667927,space,0.0982608,None,603.4683801,603.8802936,604.1807044,604.169465,604.1694827,604.1807044,604.1807044,0.0004721,604.1807044,605.1831117,200,[-0.03],[-0.275],[1],[0],[0],[1.012388600000122],1,[1.0124777000000904],[1.0124832999999853],Final,1,2024-11-13_22h22.56.541,binding,2024.1.5,None,2024-11-13 22h25.19.013376 +0530
0.7,1000,exp,10,9,129,8,605.1972472,,605.1893992,605.1972472,605.2973895,606.196985,606.196985,606.2661366,space,0.0554897,None,606.267692,606.9802115,,607.2566678,607.2566865,607.2794455,607.2794455,0.0004545,607.2794455,610.1163542,125,[-0.03],[-0.275],[1],[0],[0],[2.858428300000014],1,[2.858538899999985],[2.8585445000003347],Final,1,2024-11-13_22h22.56.541,binding,2024.1.5,None,2024-11-13 22h25.19.013376 +0530
0.1,1000,exp,10,10,130,9,610.129484,,610.1230693,610.129484,610.2295612,611.1293651,611.1293651,620.2316612,space,9.0845435,None,620.233214,620.3449741,620.6609879,620.638178,620.6381967,620.6609879,620.6609879,0.0004621,620.6609879,622.3646311,100,[-0.03],[-0.275],[1],[0],[0],[1.7252962000002299],1,[1.7254155000000537],[1.7254205999997794],Final,1,2024-11-13_22h22.56.541,binding,2024.1.5,None,2024-11-13 22h25.19.013376 +0530
0.7,400,unexp,10,11,131,2,622.3778695,,622.3710415,622.3778695,622.4779725,623.3780346,623.3780346,623.5983334,space,0.2178267,None,623.599878,624.3110054,,624.5954786,624.5954985,624.6103818,624.6103818,0.0005297,624.6103818,626.8310172,280,[-0.03],[-0.275],[1],[0],[0],[2.234220499999992],1,[2.234326599999804],[2.234332099999847],Final,1,2024-11-13_22h22.56.541,binding,2024.1.5,None,2024-11-13 22h25.19.013376 +0530
0.1,1000,exp,11,0,132,6,626.844296,,626.8373569,626.844296,626.9439459,627.8439802,627.8439802,627.863777,space,0.0154183,None,627.865337,627.977361,628.2933003,628.2713331,628.2713521,628.2933003,628.2933003,0.0004682,628.2933003,632.6972512,590,[-0.03],[-0.275],[1],[0],[0],[4.424583699999857],1,[4.424734499999886],[4.424742000000151],Final,1,2024-11-13_22h22.56.541,binding,2024.1.5,None,2024-11-13 22h25.19.013376 +0530
0.7,1000,exp,11,1,133,5,632.7098672,,632.7036653,632.7098672,632.8098956,633.7098192,633.7098192,633.8797202,space,0.1649523,None,633.8812712,634.5929768,634.9589231,634.9465659,634.9465866,634.9589231,634.9589231,0.000529,634.9589231,636.979502,600,[-0.03],[-0.275],[1],[0],[0],[2.031610600000022],1,[2.0317159000001084],[2.0317215999998552],Final,1,2024-11-13_22h22.56.541,binding,2024.1.5,None,2024-11-13 22h25.19.013376 +0530
0.7,400,unexp,11,2,134,2,636.9926783,,636.9858538,636.9926783,637.0926837,637.9925737,637.9925737,638.0454038,space,0.0397162,None,638.0470017,638.7591808,639.0916288,639.0686425,639.0686629,639.0916288,639.0916288,0.0005955,639.0916288,640.8626445,100,[-0.03],[-0.275],[1],[0],[0],[1.7926633000001857],1,[1.7927678000000924],[1.792773699999998],Final,1,2024-11-13_22h22.56.541,binding,2024.1.5,None,2024-11-13 22h25.19.013376 +0530
0.4,1000,exp,11,3,135,10,640.8755989,,640.8690729,640.8755989,640.9755734,641.8754429,641.8754429,642.0459615,space,0.1662536,None,642.0475201,642.4586697,642.7745815,642.7663567,642.7663776,642.7745815,642.7745815,0.0005342,642.7745815,647.0615774,129,[-0.03],[-0.275],[1],[0],[0],[4.293784099999812],1,[4.293891700000131],[4.293897100000322],Final,1,2024-11-13_22h22.56.541,binding,2024.1.5,None,2024-11-13 22h25.19.013376 +0530
0.7,1000,exp,11,4,136,11,647.0750532,,647.0680105,647.0750532,647.1748351,648.0745492,648.0745492,699.0052697,space,50.9291949,None,699.0068266,699.7178347,700.0339686,700.0235241,700.0235431,700.0339686,700.0339686,0.000532,700.0339686,704.4536425,250,[-0.07],[-0.2683333333333333],[1],[0],[0],[4.428873900000326],1,[4.428986700000223],[4.4289920999999595],Final,1,2024-11-13_22h22.56.541,binding,2024.1.5,None,2024-11-13 22h25.19.013376 +0530
0.4,1000,exp,11,5,137,7,704.4672961,,704.4598972,704.4672961,704.567539,705.4677368,705.4677368,706.4540073,space,0.9792645,None,706.4555797,706.8671183,707.2328333,707.2153551,707.2153746,707.2328333,707.2328333,0.0005404,707.2328333,708.5033464,100,[-0.07],[-0.2683333333333333],[1],[0],[0],[1.2867621000000327],1,[1.286864499999865],[1.2868702000000667],Final,1,2024-11-13_22h22.56.541,binding,2024.1.5,None,2024-11-13 22h25.19.013376 +0530
0.1,1000,exp,11,6,138,9,708.5173154,,708.5098661,708.5173154,708.6171373,709.5166674,709.5166674,709.5867183,space,0.0665392,None,709.5884752,709.6999731,710.0158867,710.0063233,710.0063484,710.0158867,710.0158867,0.0005704,710.0158867,710.9695133,100,[-0.07],[-0.2683333333333333],[1],[0],[0],[0.9618901999997433],1,[0.9620082999999795],[0.962014199999885],Final,1,2024-11-13_22h22.56.541,binding,2024.1.5,None,2024-11-13 22h25.19.013376 +0530
0.1,400,unexp,11,7,139,0,710.9829485,,710.9758854,710.9829485,711.0831554,711.9833054,711.9833054,712.1192974,space,0.1308127,None,712.1208597,712.2328663,,712.5201292,712.5201486,712.5326265,712.5326265,0.0004877,712.5326265,713.6527267,100,[-0.07],[-0.2683333333333333],[1],[0],[0],[1.1313351000003422],1,[1.1314423999997416],[1.1314480999999432],Final,1,2024-11-13_22h22.56.541,binding,2024.1.5,None,2024-11-13 22h25.19.013376 +0530
0.4,400,unexp,11,8,140,1,713.6665442,,713.6591891,713.6665442,713.7665171,714.6657993,714.6657993,714.7688164,space,0.0865447,None,714.7703964,715.1825334,,715.4536207,715.4536415,715.4651508,715.4651508,0.000533,715.4651508,716.3186939,200,[-0.07],[-0.2683333333333333],[1],[0],[0],[0.8637644999998884],1,[0.863868999999795],[0.8638743000001341],Final,1,2024-11-13_22h22.56.541,binding,2024.1.5,None,2024-11-13 22h25.19.013376 +0530
0.4,1000,exp,11,9,141,4,716.3325185,,716.3246287,716.3325185,716.4328471,717.332087,717.332087,717.5200682,space,0.1868892,None,717.5216673,717.9321321,,718.2093352,718.2093539,718.2314365,718.2314365,0.0004823,718.2314365,751.4309207,700,[-0.07],[-0.2683333333333333],[1],[0],[0],[33.220404900000176],1,[33.220519100000274],[33.22052430000031],Final,1,2024-11-13_22h22.56.541,binding,2024.1.5,None,2024-11-13 22h25.19.013376 +0530
0.1,1000,exp,11,10,142,3,751.4445006,,751.4375167,751.4445006,751.5446174,752.4447116,752.4447116,752.5139204,space,0.060427,None,752.5154477,752.6279322,752.9436675,752.9287314,752.9287507,752.9436675,752.9436675,0.0005345,752.9436675,754.764138,100,[-0.07],[-0.2683333333333333],[1],[0],[0],[1.8340551000001142],1,[1.834148400000231],[1.834154099999978],Final,1,2024-11-13_22h22.56.541,binding,2024.1.5,None,2024-11-13 22h25.19.013376 +0530
0.7,1000,exp,11,11,143,8,754.7775558,,754.7707102,754.7775558,754.8774105,755.7773891,755.7773891,755.9466874,space,0.1600487,None,755.9482452,756.6611984,,756.9021609,756.90218,756.9104755,756.9104755,0.0004644,756.9104755,758.5634031,100,[-0.07],[-0.2683333333333333],[1],[0],[0],[1.660034099999848],1,[1.6601518999996188],[1.6601576999996723],Final,1,2024-11-13_22h22.56.541,binding,2024.1.5,None,2024-11-13 22h25.19.013376 +0530
0.1,1000,exp,12,0,144,3,758.5771698,,758.5698245,758.5771698,758.6769096,759.5768225,759.5768225,759.6479978,space,0.0677379,None,759.6496395,759.760086,,760.0325766,760.0325971,760.0426637,760.0426637,0.0005358,760.0426637,761.9796097,150,[-0.08833333333333333],[-0.27666666666666667],[1],[0],[0],[1.9457660999996733],1,[1.945868999999675],[1.9458748999995805],Final,1,2024-11-13_22h22.56.541,binding,2024.1.5,None,2024-11-13 22h25.19.013376 +0530
0.4,1000,exp,12,1,145,10,761.9933292,,761.9860143,761.9933292,762.0934427,762.9929487,762.9929487,763.0632283,space,0.0621983,None,763.0647647,763.4764316,763.8254562,763.8070475,763.8070684,763.8254562,763.8254562,0.0005774,763.8254562,765.1791038,300,[-0.08833333333333333],[-0.27666666666666667],[1],[0],[0],[1.3706946999996035],1,[1.3707970999998906],[1.370802299999923],Final,1,2024-11-13_22h22.56.541,binding,2024.1.5,None,2024-11-13 22h25.19.013376 +0530
0.1,1000,exp,12,2,146,6,765.1927414,,765.1853287,765.1927414,765.2927111,766.1926104,766.1926104,766.3123029,space,0.1083694,None,766.3138317,766.4258631,766.7420879,766.7281267,766.7281473,766.7420879,766.7420879,0.0006093,766.7420879,767.7290829,200,[-0.08833333333333333],[-0.27666666666666667],[1],[0],[0],[0.9995743999998012],1,[0.9996750000000247],[0.9996811000000889],Final,1,2024-11-13_22h22.56.541,binding,2024.1.5,None,2024-11-13 22h25.19.013376 +0530
0.1,400,unexp,12,3,147,0,767.742733,,767.7355798,767.742733,767.8425228,768.7422498,768.7422498,768.795101,space,0.0390833,None,768.7966498,768.9090527,,769.1686924,769.1687122,769.191447,769.191447,0.0004813,769.191447,770.7951856,500,[-0.08833333333333333],[-0.27666666666666667],[1],[0],[0],[1.6253219000000172],1,[1.625427899999977],[1.6254330000001573],Final,1,2024-11-13_22h22.56.541,binding,2024.1.5,None,2024-11-13 22h25.19.013376 +0530
0.4,1000,exp,12,4,148,7,770.8086455,,770.8015002,770.8086455,770.9090943,771.8085784,771.8085784,771.9456214,space,0.1283717,None,771.9472109,772.3585415,,772.6095952,772.6096152,772.6243967,772.6243967,0.0005229,772.6243967,773.8949839,700,[-0.08833333333333333],[-0.27666666666666667],[1],[0],[0],[1.284044399999857],1,[1.2841628999999557],[1.2841685000003054],Final,1,2024-11-13_22h22.56.541,binding,2024.1.5,None,2024-11-13 22h25.19.013376 +0530
0.7,1000,exp,12,5,149,5,773.9085173,,773.9013838,773.9085173,774.0081832,774.9081353,774.9081353,775.0456545,space,0.1203204,None,775.0472594,775.7579616,776.0749204,776.0549624,776.0549821,776.0749204,776.0749204,0.0004814,776.0749204,778.7785694,200,[-0.08833333333333333],[-0.27666666666666667],[1],[0],[0],[2.7222195999997894],1,[2.7223783999997977],[2.7223862000000736],Final,1,2024-11-13_22h22.56.541,binding,2024.1.5,None,2024-11-13 22h25.19.013376 +0530
0.4,400,unexp,12,6,150,1,778.7908242,,778.7851401,778.7908242,778.8909777,779.7908419,779.7908419,779.827036,space,0.0264076,None,779.8285841,780.2406345,780.5567739,780.5450517,780.5450722,780.5567739,780.5567739,0.0005666,780.5567739,781.4105219,100,[-0.095],[-0.2733333333333333],[1],[0],[0],[0.8641516000002412],1,[0.8642570999995769],[0.8642627999997785],Final,1,2024-11-13_22h22.56.541,binding,2024.1.5,None,2024-11-13 22h25.19.013376 +0530
0.7,400,unexp,12,7,151,2,781.4242289,,781.4168468,781.4242289,781.5239262,782.4240569,782.4240569,782.4945061,space,0.0532222,None,782.4960893,783.2071478,,783.4674119,783.4674309,783.4896708,783.4896708,0.0004633,783.4896708,785.3614934,350,[-0.095],[-0.2733333333333333],[1],[0],[0],[1.8927084000001742],1,[1.8928679000000557],[1.8928753999998662],Final,1,2024-11-13_22h22.56.541,binding,2024.1.5,None,2024-11-13 22h25.19.013376 +0530
0.7,1000,exp,12,8,152,11,785.3733496,,785.3678379,785.3733496,785.4735375,786.3732758,786.3732758,786.4930444,space,0.1161466,None,786.4946122,787.2066928,787.5226858,787.5074176,787.5074377,787.5226858,787.5226858,0.0005245,787.5226858,788.8926292,400,[-0.095],[-0.2733333333333333],[1],[0],[0],[1.383890699999938],1,[1.3839979999997922],[1.3840036999999938],Final,1,2024-11-13_22h22.56.541,binding,2024.1.5,None,2024-11-13 22h25.19.013376 +0530
0.7,1000,exp,12,9,153,8,788.9063226,,788.8988972,788.9063226,789.0062612,789.906706,789.906706,789.9757385,space,0.0593655,None,789.9773075,790.6893488,,790.9722163,790.972239,790.9886249,790.9886249,0.000549,790.9886249,792.7100646,100,[-0.095],[-0.2733333333333333],[1],[0],[0],[1.7363439999999173],1,[1.736520500000097],[1.7365311000003203],Final,1,2024-11-13_22h22.56.541,binding,2024.1.5,None,2024-11-13 22h25.19.013376 +0530
0.4,1000,exp,12,10,154,4,792.7225756,,792.7172994,792.7225756,792.8225496,793.72227,793.72227,794.0754242,space,0.3369393,None,794.0769731,794.4888432,,794.7725659,794.7725859,794.7883482,794.7883482,0.0005278,794.7883482,795.959416,100,[-0.095],[-0.2733333333333333],[1],[0],[0],[1.185386500000277],1,[1.1855397999997876],[1.185547200000201],Final,1,2024-11-13_22h22.56.541,binding,2024.1.5,None,2024-11-13 22h25.19.013376 +0530
0.1,1000,exp,12,11,155,9,795.9724391,,795.966019,795.9724391,796.0722705,796.971823,796.971823,797.2081151,space,0.2299504,None,797.2096654,797.321802,797.6379616,797.6255019,797.6255226,797.6379616,797.6379616,0.0005416,797.6379616,798.8748188,100,[-0.095],[-0.2733333333333333],[1],[0],[0],[1.2479746999997587],1,[1.2480819000002157],[1.2480874000002586],Final,1,2024-11-13_22h22.56.541,binding,2024.1.5,None,2024-11-13 22h25.19.013376 +0530
0.4,1000,exp,13,0,156,10,798.8883536,,798.8810783,798.8883536,798.9883702,799.8882241,799.8882241,799.9918083,space,0.0967921,None,799.9933689,800.4053119,800.7046934,800.693131,800.6931489,800.7046934,800.7046934,0.0004644,800.7046934,802.5911656,100,[-0.095],[-0.2733333333333333],[1],[0],[0],[1.8968211000001247],1,[1.8969226999997773],[1.8969280000001163],Final,1,2024-11-13_22h22.56.541,binding,2024.1.5,None,2024-11-13 22h25.19.013376 +0530
0.4,1000,exp,13,1,157,4,802.6046918,,802.5978673,802.6046918,802.7048291,803.6046714,803.6046714,803.8238617,space,0.2118626,None,803.8254405,804.2376419,,804.4977239,804.4977465,804.5203352,804.5203352,0.0004696,804.5203352,806.2239233,100,[-0.095],[-0.2733333333333333],[1],[0],[0],[1.7248718999999255],1,[1.7249793000000864],[1.7249848000001293],Final,1,2024-11-13_22h22.56.541,binding,2024.1.5,None,2024-11-13 22h25.19.013376 +0530
0.1,400,unexp,13,2,158,0,806.2378077,,806.2302523,806.2378077,806.3373689,807.2375325,807.2375325,807.6909081,space,0.4408888,None,807.6924804,807.8037588,,808.0692227,808.0692439,808.0864932,808.0864932,0.0005387,808.0864932,812.5064389,580,[-0.095],[-0.2733333333333333],[1],[0],[0],[4.435817300000053],1,[4.435905899999852],[4.435911799999758],Final,1,2024-11-13_22h22.56.541,binding,2024.1.5,None,2024-11-13 22h25.19.013376 +0530
0.7,1000,exp,13,3,159,5,812.5198077,,812.5129512,812.5198077,812.6201063,813.5196653,813.5196653,813.6728376,space,0.1458285,None,813.6744286,814.3863779,,814.6481235,814.648143,814.6690838,814.6690838,0.0004885,814.6690838,816.4576353,128,[-0.095],[-0.2733333333333333],[1],[0],[0],[1.8081237000001238],1,[1.808286599999974],[1.8082942999999432],Final,1,2024-11-13_22h22.56.541,binding,2024.1.5,None,2024-11-13 22h25.19.013376 +0530
0.1,1000,exp,13,4,160,9,816.4694112,,816.4641378,816.4694112,816.5693955,817.4695751,817.4695751,817.5397492,space,0.0673054,None,817.5413872,817.6525603,817.9684917,817.9493861,817.9494055,817.9684917,817.9684917,0.0004653,817.9684917,820.139099,288,[-0.095],[-0.2733333333333333],[1],[0],[0],[2.18839300000036],1,[2.1885004000000663],[2.188505499999792],Final,1,2024-11-13_22h22.56.541,binding,2024.1.5,None,2024-11-13 22h25.19.013376 +0530
0.1,1000,exp,13,5,161,6,820.1521936,,820.145331,820.1521936,820.2523267,821.1520495,821.1520495,821.2558912,space,0.0983499,None,821.2574374,821.3687218,821.6687369,821.6582071,821.6582265,821.6687369,821.6687369,0.0004728,821.6687369,824.5383211,170,[-0.095],[-0.2733333333333333],[1],[0],[0],[2.878971599999659],1,[2.879079400000137],[2.879084800000328],Final,1,2024-11-13_22h22.56.541,binding,2024.1.5,None,2024-11-13 22h25.19.013376 +0530
0.7,400,unexp,13,6,162,2,824.5515723,,824.5447663,824.5515723,824.6518007,825.5516128,825.5516128,825.8065295,space,0.2459134,None,825.8099203,826.5182221,,826.805426,826.8054445,826.8183377,826.8183377,0.0005145,826.8183377,830.3872987,300,[-0.11666666666666667],[-0.29333333333333333],[1],[0],[0],[3.580575499999668],1,[3.5806738000001133],[3.5806790999999976],Final,1,2024-11-13_22h22.56.541,binding,2024.1.5,None,2024-11-13 22h25.19.013376 +0530
0.1,1000,exp,13,7,163,3,830.4009556,,830.393685,830.4009556,830.5009206,831.4011047,831.4011047,831.5704189,space,0.166887,None,831.5719827,831.6839441,,831.9593254,831.9593452,831.9833451,831.9833451,0.0004783,831.9833451,833.3214516,100,[-0.11666666666666667],[-0.29333333333333333],[1],[0],[0],[1.3607909999996082],1,[1.3609363000000485],[1.3609436000001551],Final,1,2024-11-13_22h22.56.541,binding,2024.1.5,None,2024-11-13 22h25.19.013376 +0530
0.4,1000,exp,13,8,164,7,833.3341197,,833.3276986,833.3341197,833.4339277,834.3336776,834.3336776,834.3874176,space,0.0444652,None,834.38901,834.80031,835.1164964,835.0942286,835.0942469,835.1164964,835.1164964,0.0004609,835.1164964,837.0702651,190,[-0.13333333333333333],[-0.31333333333333335],[1],[0],[0],[1.9748443999997107],1,[1.9749554999998509],[1.9749606999998832],Final,1,2024-11-13_22h22.56.541,binding,2024.1.5,None,2024-11-13 22h25.19.013376 +0530
0.4,400,unexp,13,9,165,1,837.0834198,,837.0764631,837.0834198,837.1838047,838.0836285,838.0836285,838.1029715,space,0.0062554,None,838.104511,838.5165011,,838.7756268,838.7756459,838.7992394,838.7992394,0.0005313,838.7992394,841.1025348,300,[-0.06333333333333334],[-0.32],[1],[0],[0],[2.3255755999998655],1,[2.3256743000001734],[2.3256796000000577],Final,1,2024-11-13_22h22.56.541,binding,2024.1.5,None,2024-11-13 22h25.19.013376 +0530
0.7,1000,exp,13,10,166,8,841.1164767,,841.1088529,841.1164767,841.216665,842.1161389,842.1161389,842.2521237,space,0.1323054,None,842.2536877,842.9658633,,843.2151882,843.2152084,843.2317749,843.2317749,0.0005409,843.2317749,846.1032668,250,[-0.043333333333333335],[-0.29],[1],[0],[0],[2.886767299999974],1,[2.886881799999628],[2.8868874999998297],Final,1,2024-11-13_22h22.56.541,binding,2024.1.5,None,2024-11-13 22h25.19.013376 +0530
0.7,1000,exp,13,11,167,11,846.1156939,,846.1099546,846.1156939,846.2155906,847.1153923,847.1153923,847.2350235,space,0.1171982,None,847.2365682,847.9488209,848.2977997,848.284959,848.2849848,848.2977997,848.2977997,0.0005516,848.2977997,852.467628,150,[-0.045],[-0.29],[1],[0],[0],[4.181368399999883],1,[4.1814736999999695],[4.181479800000034],Final,1,2024-11-13_22h22.56.541,binding,2024.1.5,None,2024-11-13 22h25.19.013376 +0530
0.1,400,unexp,14,0,168,0,852.4814302,,852.4743092,852.4814302,852.5813828,853.4815123,853.4815123,861.6832434,space,8.1991429,None,861.6848208,861.7967995,862.1296049,862.1159552,862.1159769,862.1296049,862.1296049,0.000548,862.1296049,865.2675139,120,[-0.02666666666666667],[-0.29833333333333334],[1],[0],[0],[3.150218799999948],1,[3.150316499999917],[3.1503222999999707],Final,1,2024-11-13_22h22.56.541,binding,2024.1.5,None,2024-11-13 22h25.19.013376 +0530
0.1,1000,exp,14,1,169,9,865.279654,,865.2740586,865.279654,865.3796371,866.2795804,866.2795804,866.7161143,space,0.4346224,None,866.7176821,866.8295495,867.1455261,867.121929,867.1219467,867.1455261,867.1455261,0.0004897,867.1455261,868.7155922,170,[-0.02666666666666667],[-0.29833333333333334],[1],[0],[0],[1.5924694999998792],1,[1.592580800000178],[1.592586400000073],Final,1,2024-11-13_22h22.56.541,binding,2024.1.5,None,2024-11-13 22h25.19.013376 +0530
0.7,400,unexp,14,2,170,2,868.7291689,,868.722132,868.7291689,868.8293731,869.7291189,869.7291189,870.048996,space,0.3065959,None,870.050529,870.7625893,,871.0244196,871.0244388,871.0449092,871.0449092,0.0004727,871.0449092,874.4317043,150,[-0.02666666666666667],[-0.29833333333333334],[1],[0],[0],[3.4060844000000543],1,[3.4061947000000146],[3.406199999999899],Final,1,2024-11-13_22h22.56.541,binding,2024.1.5,None,2024-11-13 22h25.19.013376 +0530
0.4,1000,exp,14,3,171,10,874.4452461,,874.4381702,874.4452461,874.5452522,875.4449754,875.4449754,876.3146918,space,0.8675453,None,876.3162366,876.7280673,877.060681,877.0368744,877.0368958,877.060681,877.060681,0.0005623,877.060681,880.9642486,20,[-0.02666666666666667],[-0.29833333333333334],[1],[0],[0],[3.9261059000000387],1,[3.9262140000000727],[3.9262193000004117],Final,1,2024-11-13_22h22.56.541,binding,2024.1.5,None,2024-11-13 22h25.19.013376 +0530
0.4,400,unexp,14,4,172,1,880.9781369,,880.9706897,880.9781369,881.0776524,881.9775878,881.9775878,882.2636069,space,0.271021,None,882.2652227,882.6773711,,882.9232207,882.9232407,882.9433094,882.9433094,0.0004706,882.9433094,885.1152757,30,[-0.02666666666666667],[-0.29833333333333334],[1],[0],[0],[2.1906441999999515],1,[2.190804300000309],[2.19081210000013],Final,1,2024-11-13_22h22.56.541,binding,2024.1.5,None,2024-11-13 22h25.19.013376 +0530
0.7,1000,exp,14,5,173,8,885.1273732,,885.1218455,885.1273732,885.2272127,886.127034,886.127034,886.6965827,space,0.5657318,None,886.6981484,887.4102525,,887.6760163,887.6760368,887.6926818,887.6926818,0.0005866,887.6926818,891.8790919,350,[-0.02666666666666667],[-0.29833333333333334],[1],[0],[0],[4.201707600000191],1,[4.201801899999737],[4.201807099999769],Final,1,2024-11-13_22h22.56.541,binding,2024.1.5,None,2024-11-13 22h25.19.013376 +0530
0.1,1000,exp,14,6,174,3,891.8933864,,891.8855555,891.8933864,891.9929756,892.892749,892.892749,893.2787682,space,0.3770566,None,893.2803265,893.3927038,,893.6793778,893.6793985,893.692061,893.692061,0.0005277,893.692061,897.5453508,150,[-0.02666666666666667],[-0.29833333333333334],[1],[0],[0],[3.8646897000003264],1,[3.864792200000011],[3.864797600000202],Final,1,2024-11-13_22h22.56.541,binding,2024.1.5,None,2024-11-13 22h25.19.013376 +0530
0.1,1000,exp,14,7,175,6,897.5588577,,897.5515312,897.5588577,897.6587646,898.5586643,898.5586643,898.8114856,space,0.2420518,None,898.8131844,898.9256881,,899.1948068,899.1948262,899.2079116,899.2079116,0.0005195,899.2079116,904.1957427,110,[-0.02666666666666667],[-0.29833333333333334],[1],[0],[0],[4.999533799999881],1,[4.999696599999879],[4.999703999999838],Final,1,2024-11-13_22h22.56.541,binding,2024.1.5,None,2024-11-13 22h25.19.013376 +0530
0.4,1000,exp,14,8,176,4,904.2080461,,904.2026098,904.2080461,904.3082827,905.2079051,905.2079051,905.5616034,space,0.3468133,None,905.5637086,905.9742944,906.2902988,906.2674903,906.2675083,906.2902988,906.2902988,0.0005597,906.2902988,909.9612818,90,[-0.02666666666666667],[-0.29833333333333334],[1],[0],[0],[3.692447799999627],1,[3.692553399999724],[3.6925587000000633],Final,1,2024-11-13_22h22.56.541,binding,2024.1.5,None,2024-11-13 22h25.19.013376 +0530
0.7,1000,exp,14,9,177,5,909.973949,,909.9676437,909.973949,910.0737768,910.9737839,910.9737839,911.4766255,space,0.5013138,None,911.4781929,912.1907303,,912.4519896,912.4520077,912.4728686,912.4728686,0.0004744,912.4728686,915.0438857,300,[-0.02666666666666667],[-0.29833333333333334],[1],[0],[0],[2.5906629999999495],1,[2.590775499999836],[2.590781099999731],Final,1,2024-11-13_22h22.56.541,binding,2024.1.5,None,2024-11-13 22h25.19.013376 +0530
0.4,1000,exp,14,10,178,7,915.0566093,,915.0503984,915.0566093,915.1565458,916.0565649,916.0565649,916.8595882,space,0.7930761,None,916.8611543,917.2729103,917.5890844,917.5671216,917.5671411,917.5890844,917.5890844,0.0004659,917.5890844,924.6759595,460,[-0.02666666666666667],[-0.29833333333333334],[1],[0],[0],[7.107589000000189],1,[7.107726899999761],[7.107733199999984],Final,1,2024-11-13_22h22.56.541,binding,2024.1.5,None,2024-11-13 22h25.19.013376 +0530
0.7,1000,exp,14,11,179,11,924.6886503,,924.6822539,924.6886503,924.7885914,925.6885343,925.6885343,925.7246809,space,0.0226215,None,925.726231,926.438653,926.7543616,926.7389725,926.7389915,926.7543616,926.7543616,0.0005269,926.7543616,928.507743,100,[-0.02666666666666667],[-0.29833333333333334],[1],[0],[0],[1.767529199999899],1,[1.767639700000018],[1.7676454000002195],Final,1,2024-11-13_22h22.56.541,binding,2024.1.5,None,2024-11-13 22h25.19.013376 +0530
0.7,400,unexp,15,0,180,2,928.5214807,,928.5142048,928.5214807,928.6215976,929.5213423,929.5213423,930.0248815,space,0.4885201,None,930.0266613,930.7378963,931.0873022,931.0730515,931.0730793,931.0873022,931.0873022,0.0008253,931.0873022,933.2433226,400,[-0.02666666666666667],[-0.29833333333333334],[1],[0],[0],[2.168446700000004],1,[2.168644200000017],[2.1686539000002085],Final,1,2024-11-13_22h22.56.541,binding,2024.1.5,None,2024-11-13 22h25.19.013376 +0530
0.1,1000,exp,15,1,181,9,933.2703126,,933.2592551,933.2703126,933.3710681,934.271047,934.271047,934.9403094,space,0.6535798,None,934.9419364,935.0539937,,935.3292585,935.3292785,935.3532996,935.3532996,0.0004602,935.3532996,938.3066457,100,[-0.02666666666666667],[-0.29833333333333334],[1],[0],[0],[2.9761828999999125],1,[2.9762878999999884],[2.976293100000021],Final,1,2024-11-13_22h22.56.541,binding,2024.1.5,None,2024-11-13 22h25.19.013376 +0530
0.4,1000,exp,15,2,182,4,938.3205537,,938.3130744,938.3205537,938.4202014,939.3202367,939.3202367,939.8728178,space,0.5442685,None,939.8743522,940.286494,940.6026017,940.5842704,940.5842908,940.6026017,940.6026017,0.0005108,940.6026017,942.5730794,300,[-0.02666666666666667],[-0.29833333333333334],[1],[0],[0],[1.9874853000001167],1,[1.9875958000002356],[1.9876016000002892],Final,1,2024-11-13_22h22.56.541,binding,2024.1.5,None,2024-11-13 22h25.19.013376 +0530
0.4,1000,exp,15,3,183,7,942.5867486,,942.5798075,942.5867486,942.6862786,943.5861592,943.5861592,943.9389188,space,0.3458091,None,943.9404558,944.3526414,944.7185953,944.6988868,944.6989086,944.7185953,944.7185953,0.0005437,944.7185953,946.1558542,100,[-0.02666666666666667],[-0.29833333333333334],[1],[0],[0],[1.4556778999999551],1,[1.4557965000003605],[1.4558019000000968],Final,1,2024-11-13_22h22.56.541,binding,2024.1.5,None,2024-11-13 22h25.19.013376 +0530
0.1,1000,exp,15,4,184,6,946.1691557,,946.1622439,946.1691557,946.2692061,947.1689687,947.1689687,947.5228894,space,0.3495516,None,947.5244274,947.6356112,,947.9091925,947.9092127,947.918226,947.918226,0.000529,947.918226,949.4051773,100,[-0.02666666666666667],[-0.29833333333333334],[1],[0],[0],[1.494644700000208],1,[1.4947429000003467],[1.494748200000231],Final,1,2024-11-13_22h22.56.541,binding,2024.1.5,None,2024-11-13 22h25.19.013376 +0530
0.1,1000,exp,15,5,185,3,949.418856,,949.4114467,949.418856,949.5188309,950.4186521,950.4186521,950.5391774,space,0.1050913,None,950.5407112,950.6521299,,950.914057,950.9140764,950.9345904,950.9345904,0.0004824,950.9345904,953.4711011,60,[-0.02666666666666667],[-0.29833333333333334],[1],[0],[0],[2.5558061000001544],1,[2.5559056000001874],[2.5559108000002198],Final,1,2024-11-13_22h22.56.541,binding,2024.1.5,None,2024-11-13 22h25.19.013376 +0530
0.7,1000,exp,15,6,186,5,953.4849166,,953.4776769,953.4849166,953.5849309,954.4849023,954.4849023,954.871372,space,0.3815415,None,954.8729885,955.584568,955.9006313,955.8832917,955.8833105,955.9006313,955.9006313,0.0005508,955.9006313,957.2373029,500,[-0.02666666666666667],[-0.29833333333333334],[1],[0],[0],[1.3527444999999716],1,[1.352813999999853],[1.352821099999801],Final,1,2024-11-13_22h22.56.541,binding,2024.1.5,None,2024-11-13 22h25.19.013376 +0530
0.7,1000,exp,15,7,187,8,957.2510697,,957.2436094,957.2510697,957.3510628,958.2508982,958.2508982,958.7536973,space,0.4881022,None,958.7552314,959.4675111,,959.7560096,959.7560271,959.7669193,959.7669193,0.000515,959.7669193,962.1867346,100,[-0.02666666666666667],[-0.29833333333333334],[1],[0],[0],[2.429471299999932],1,[2.429571399999986],[2.429576900000029],Final,1,2024-11-13_22h22.56.541,binding,2024.1.5,None,2024-11-13 22h25.19.013376 +0530
0.1,400,unexp,15,8,188,0,962.2007517,,962.1930959,962.2007517,962.300453,963.2002657,963.2002657,981.3009108,space,18.0860504,None,981.3025354,981.4149396,981.7474034,981.7277401,981.7277638,981.7474034,981.7474034,0.0005981,981.7474034,983.4181259,100,[0.025],[0.03],[1],[0],[0],[1.6889609999998356],0,,,Final,1,2024-11-13_22h22.56.541,binding,2024.1.5,None,2024-11-13 22h25.19.013376 +0530
0.4,400,unexp,15,9,189,1,983.4313995,,983.4246928,983.4313995,983.5311754,984.4308352,984.4308352,985.1007717,space,0.6531319,None,985.1024075,985.5140919,,985.7570385,985.7570583,985.7799988,985.7799988,0.0004867,985.7799988,987.7176718,120,[-0.04666666666666667],[-0.3283333333333333],[1],[0],[0],[1.9593482000000222],1,[1.9594630999999936],[1.9594691000002058],Final,1,2024-11-13_22h22.56.541,binding,2024.1.5,None,2024-11-13 22h25.19.013376 +0530
0.7,1000,exp,15,10,190,11,987.7308392,,987.72412,987.7308392,987.8307885,988.7302294,988.7302294,989.8332838,space,1.0917683,None,989.8348285,990.5466888,,990.7978224,990.7978413,990.8127019,990.8127019,0.0005306,990.8127019,993.866194,222,[-0.04666666666666667],[-0.3283333333333333],[1],[0],[0],[3.0669991999998274],1,[3.067112199999883],[3.067117699999926],Final,1,2024-11-13_22h22.56.541,binding,2024.1.5,None,2024-11-13 22h25.19.013376 +0530
0.4,1000,exp,15,11,191,10,993.8801648,,993.8726137,993.8801648,993.979818,994.8799076,994.8799076,995.1490805,space,0.2633918,None,995.1506232,995.562699,995.878794,995.8558187,995.8558367,995.878794,995.878794,0.000455,995.878794,997.6001692,122,[-0.04666666666666667],[-0.3283333333333333],[1],[0],[0],[1.743013300000257],1,[1.7431679000001168],[1.7431747000000541],Final,1,2024-11-13_22h22.56.541,binding,2024.1.5,None,2024-11-13 22h25.19.013376 +0530
0.7,1000,exp,16,0,192,5,997.6127935,,997.6065347,997.6127935,997.7126384,998.6125134,998.6125134,999.331862,space,0.7126972,None,999.3334926,1000.045479,,1000.287824,1000.287844,1000.311385,1000.311385,0.0004809,1000.311385,1004.265024,150,[-0.04666666666666667],[-0.3283333333333333],[1],[0],[0],[3.975906699999996],1,[3.9760206999999355],[3.976026699999693],Final,1,2024-11-13_22h22.56.541,binding,2024.1.5,None,2024-11-13 22h25.19.013376 +0530
0.4,1000,exp,16,1,193,7,1004.294498,,1004.276014,1004.294498,1004.378967,1005.278108,1005.294924,1005.432058,space,0.1394362,None,1005.433605,1005.844675,,1006.099771,1006.09979,1006.110628,1006.110628,0.0005114,1006.110628,1008.197291,100,[-0.04666666666666667],[-0.3283333333333333],[1],[0],[0],[2.096238400000402],1,[2.0963418000001184],[2.0963479000001826],Final,1,2024-11-13_22h22.56.541,binding,2024.1.5,None,2024-11-13 22h25.19.013376 +0530
0.1,1000,exp,16,2,194,9,1008.211151,,1008.203657,1008.211151,1008.31124,1009.211017,1009.211017,1011.263859,space,2.0415559,None,1011.265396,1011.377367,1011.693307,1011.672641,1011.672659,1011.693307,1011.693307,0.0004543,1011.693307,1027.061912,100,[-0.04666666666666667],[-0.3283333333333333],[1],[0],[0],[15.388042799999766],1,[15.388152900000023],[15.388159000000087],Final,1,2024-11-13_22h22.56.541,binding,2024.1.5,None,2024-11-13 22h25.19.013376 +0530
0.1,1000,exp,16,3,195,3,1027.075795,,1027.069231,1027.075795,1027.17534,1028.075195,1028.075195,1028.26157,space,0.1798049,None,1028.263162,1028.375149,1028.707847,1028.696836,1028.696858,1028.707847,1028.707847,0.000671,1028.707847,1032.261419,200,[-0.04666666666666667],[-0.3283333333333333],[1],[0],[0],[3.563086900000144],1,[3.5631948000000193],[3.5632007000003796],Final,1,2024-11-13_22h22.56.541,binding,2024.1.5,None,2024-11-13 22h25.19.013376 +0530
0.7,1000,exp,16,4,196,11,1032.27472,,1032.268217,1032.27472,1032.374663,1033.274592,1033.274592,1034.277595,space,1.0018797,None,1034.279182,1034.990948,1035.307114,1035.295613,1035.295634,1035.307114,1035.307114,0.0005499,1035.307114,1045.32607,180,[-0.04666666666666667],[-0.3283333333333333],[1],[0],[0],[10.028987799999868],1,[10.029145599999993],[10.02915320000011],Final,1,2024-11-13_22h22.56.541,binding,2024.1.5,None,2024-11-13 22h25.19.013376 +0530
0.4,1000,exp,16,5,197,10,1045.339652,,1045.33266,1045.339652,1045.439574,1046.339783,1046.339783,1046.708766,space,0.3570935,None,1046.71034,1047.122823,1047.43976,1047.419597,1047.419615,1047.43976,1047.43976,0.0004558,1047.43976,1057.0912,200,[-0.04666666666666667],[-0.3283333333333333],[1],[0],[0],[9.670454199999767],1,[9.670560999999907],[9.67056679999996],Final,1,2024-11-13_22h22.56.541,binding,2024.1.5,None,2024-11-13 22h25.19.013376 +0530
0.1,400,unexp,16,6,198,0,1057.104695,,1057.097592,1057.104695,1057.204873,1058.10455,1058.10455,1058.55737,space,0.4371583,None,1058.558903,1058.671037,1059.02042,1059.000612,1059.000633,1059.02042,1059.02042,0.0005482,1059.02042,1062.991231,180,[-0.04666666666666667],[-0.3283333333333333],[1],[0],[0],[3.9891215000002376],1,[3.9892698999997265],[3.989277199999833],Final,1,2024-11-13_22h22.56.541,binding,2024.1.5,None,2024-11-13 22h25.19.013376 +0530
0.7,400,unexp,16,7,199,2,1063.00446,,1062.997753,1063.00446,1063.10396,1064.004458,1064.004458,1064.689863,space,0.6843476,None,1064.691407,1065.403828,1065.736337,1065.716519,1065.716537,1065.736337,1065.736337,0.0004898,1065.736337,1068.357681,300,[-0.04666666666666667],[-0.3283333333333333],[1],[0],[0],[2.6397508000000016],1,[2.639909799999714],[2.6399178000001484],Final,1,2024-11-13_22h22.56.541,binding,2024.1.5,None,2024-11-13 22h25.19.013376 +0530
0.7,1000,exp,16,8,200,8,1068.37008,,1068.364739,1068.37008,1068.470055,1069.369856,1069.369856,1069.440426,space,0.0525098,None,1069.442045,1070.153201,,1070.433916,1070.433935,1070.452409,1070.452409,0.0006377,1070.452409,1071.889205,400,[-0.04666666666666667],[-0.3283333333333333],[1],[0],[0],[1.4538493000000017],1,[1.4539371999999275],[1.4539429000001292],Final,1,2024-11-13_22h22.56.541,binding,2024.1.5,None,2024-11-13 22h25.19.013376 +0530
0.1,1000,exp,16,9,201,6,1071.91885,,1071.90187,1071.91885,1072.002982,1072.902649,1072.919405,1073.056015,space,0.1357922,None,1073.057562,1073.169647,1073.485324,1073.477561,1073.477579,1073.485324,1073.485324,0.000522,1073.485324,1075.773404,300,[-0.04666666666666667],[-0.3283333333333333],[1],[0],[0],[2.2944047999999384],1,[2.2945715000000746],[2.2945794000002024],Final,1,2024-11-13_22h22.56.541,binding,2024.1.5,None,2024-11-13 22h25.19.013376 +0530
0.4,400,unexp,16,10,202,1,1075.78562,,1075.779885,1075.78562,1075.885725,1076.785756,1076.785756,1077.621665,space,0.8283163,None,1077.623198,1078.035254,1078.351309,1078.335826,1078.335848,1078.351309,1078.351309,0.0005352,1078.351309,1081.921571,300,[-0.04666666666666667],[-0.3283333333333333],[1],[0],[0],[3.5844403999999486],1,[3.584548899999845],[3.584554399999888],Final,1,2024-11-13_22h22.56.541,binding,2024.1.5,None,2024-11-13 22h25.19.013376 +0530
0.4,1000,exp,16,11,203,4,1081.935178,,1081.928188,1081.935178,1082.034856,1082.934842,1082.934842,1083.037411,space,0.0939057,None,1083.038949,1083.451568,,1083.727168,1083.727187,1083.750531,1083.750531,0.0004507,1083.750531,1089.421602,400,[-0.04666666666666667],[-0.3283333333333333],[1],[0],[0],[5.693082300000242],1,[5.693252800000209],[5.69326030000002],Final,1,2024-11-13_22h22.56.541,binding,2024.1.5,None,2024-11-13 22h25.19.013376 +0530
0.4,1000,exp,17,0,204,10,1089.434012,,1089.428314,1089.434012,1089.53397,1090.433793,1090.433793,1144.079428,space,53.6326024,None,1144.081017,1144.493293,1144.793598,1144.783118,1144.783138,1144.793598,1144.793598,0.000496,1144.793598,1147.029788,200,[-0.04666666666666667],[-0.3283333333333333],[1],[0],[0],[2.2454029000000446],1,[2.245510100000047],[2.2455158000002484],Final,1,2024-11-13_22h22.56.541,binding,2024.1.5,None,2024-11-13 22h25.19.013376 +0530
0.4,1000,exp,17,1,205,7,1147.043161,,1147.036368,1147.043161,1147.143095,1148.043267,1148.043267,1148.613451,space,0.561413,None,1148.615051,1149.026359,1149.342229,1149.321372,1149.321391,1149.342229,1149.342229,0.0004968,1149.342229,1151.762921,300,[-0.04666666666666667],[-0.3283333333333333],[1],[0],[0],[2.4402509999999893],1,[2.440375099999983],[2.4403815000000577],Final,1,2024-11-13_22h22.56.541,binding,2024.1.5,None,2024-11-13 22h25.19.013376 +0530
0.1,1000,exp,17,2,206,6,1151.775915,,1151.770101,1151.775915,1151.876272,1152.775791,1152.775791,1153.112862,space,0.3272909,None,1153.114445,1153.225574,,1153.484701,1153.484727,1153.508294,1153.508294,0.0005405,1153.508294,1155.362099,100,[-0.04666666666666667],[-0.3283333333333333],[1],[0],[0],[1.876021000000037],1,[1.8761368000000402],[1.8761429999999564],Final,1,2024-11-13_22h22.56.541,binding,2024.1.5,None,2024-11-13 22h25.19.013376 +0530
0.7,400,unexp,17,3,207,2,1155.375287,,1155.369145,1155.375287,1155.475705,1156.375372,1156.375372,1156.962448,space,0.5811824,None,1156.964043,1157.675083,1157.9908,1157.973452,1157.973472,1157.9908,1157.9908,0.0005105,1157.9908,1160.012091,400,[-0.04666666666666667],[-0.3283333333333333],[1],[0],[0],[2.0373240000003534],1,[2.0374322000002394],[2.0374377000002823],Final,1,2024-11-13_22h22.56.541,binding,2024.1.5,None,2024-11-13 22h25.19.013376 +0530
0.7,1000,exp,17,4,208,11,1160.025208,,1160.018734,1160.025208,1160.124882,1161.024572,1161.024572,1161.161348,space,0.1341608,None,1161.162983,1161.874722,1162.174468,1162.16131,1162.161329,1162.174468,1162.174468,0.0005467,1162.174468,1163.927941,100,[-0.04666666666666667],[-0.3283333333333333],[1],[0],[0],[1.7652764999997999],1,[1.7653824000003624],[1.7653880000002573],Final,1,2024-11-13_22h22.56.541,binding,2024.1.5,None,2024-11-13 22h25.19.013376 +0530
0.1,1000,exp,17,5,209,9,1163.941245,,1163.934648,1163.941245,1164.040916,1164.940694,1164.940694,1165.277269,space,0.3310824,None,1165.279952,1165.390868,1165.706679,1165.688668,1165.688689,1165.706679,1165.706679,0.0005562,1165.706679,1178.55921,180,[-0.04666666666666667],[-0.3283333333333333],[1],[0],[0],[12.869194200000038],1,[12.869309500000327],[12.869315400000232],Final,1,2024-11-13_22h22.56.541,binding,2024.1.5,None,2024-11-13 22h25.19.013376 +0530
0.1,1000,exp,17,6,210,3,1178.572382,,1178.565859,1178.572382,1178.672554,1179.572162,1179.572162,1179.908865,space,0.3339531,None,1179.910476,1180.022198,1180.33808,1180.327092,1180.327114,1180.33808,1180.33808,0.0006163,1180.33808,1182.891974,300,[-0.04666666666666667],[-0.3283333333333333],[1],[0],[0],[2.563434099999995],1,[2.5635488000002624],[2.56355480000002],Final,1,2024-11-13_22h22.56.541,binding,2024.1.5,None,2024-11-13 22h25.19.013376 +0530
0.7,1000,exp,17,7,211,8,1182.905166,,1182.898542,1182.905166,1183.005349,1183.904923,1183.904923,1184.457981,space,0.5483307,None,1184.459522,1185.171383,1185.487543,1185.464646,1185.464665,1185.487543,1185.487543,0.0004824,1185.487543,1187.891186,100,[-0.04666666666666667],[-0.3283333333333333],[1],[0],[0],[2.425288500000079],1,[2.425400300000092],[2.425405899999987],Final,1,2024-11-13_22h22.56.541,binding,2024.1.5,None,2024-11-13 22h25.19.013376 +0530
0.7,1000,exp,17,8,212,5,1187.904414,,1187.897591,1187.904414,1188.004776,1188.904336,1188.904336,1189.257228,space,0.3382235,None,1189.258833,1189.970805,1190.286735,1190.264927,1190.264946,1190.286735,1190.286735,0.0004806,1190.286735,1191.873584,200,[-0.04666666666666667],[-0.3283333333333333],[1],[0],[0],[1.607351600000129],1,[1.607453600000099],[1.6074595000000045],Final,1,2024-11-13_22h22.56.541,binding,2024.1.5,None,2024-11-13 22h25.19.013376 +0530
0.4,1000,exp,17,9,213,4,1191.887264,,1191.880125,1191.887264,1191.987222,1192.887037,1192.887037,1193.140008,space,0.2428816,None,1193.141624,1193.553623,1193.869423,1193.846963,1193.846982,1193.869423,1193.869423,0.0004851,1193.869423,1195.807634,200,[-0.04666666666666667],[-0.3283333333333333],[1],[0],[0],[1.9593767000001208],1,[1.9595392999999603],[1.959546500000215],Final,1,2024-11-13_22h22.56.541,binding,2024.1.5,None,2024-11-13 22h25.19.013376 +0530
0.4,400,unexp,17,10,214,1,1195.82008,,1195.814326,1195.82008,1195.920602,1196.820536,1196.820536,1197.023097,space,0.1927796,None,1197.024789,1197.436812,1197.752486,1197.738076,1197.738098,1197.752486,1197.752486,0.000539,1197.752486,1200.356469,290,[-0.04666666666666667],[-0.3283333333333333],[1],[0],[0],[2.6170882999999776],1,[2.6172005000003082],[2.617206000000351],Final,1,2024-11-13_22h22.56.541,binding,2024.1.5,None,2024-11-13 22h25.19.013376 +0530
0.1,400,unexp,17,11,215,0,1200.369499,,1200.362981,1200.369499,1200.46938,1201.369456,1201.369456,1201.506704,space,0.1225381,None,1201.508278,1201.619377,1201.935314,1201.922778,1201.922805,1201.935314,1201.935314,0.0005425,1201.935314,1209.704535,600,[-0.04666666666666667],[-0.3283333333333333],[1],[0],[0],[7.780507199999647],1,[7.780601999999817],[7.780607300000156],Final,1,2024-11-13_22h22.56.541,binding,2024.1.5,None,2024-11-13 22h25.19.013376 +0530
0.4,1000,exp,18,0,216,10,1209.71836,,1209.710893,1209.71836,1209.818294,1210.718495,1210.718495,1210.937669,space,0.2157695,None,1210.939269,1211.3516,1211.667456,1211.65653,1211.656553,1211.667456,1211.667456,0.0005453,1211.667456,1213.954437,400,[-0.04666666666666667],[-0.3283333333333333],[1],[0],[0],[2.2966498000000684],1,[2.296760499999891],[2.296765999999934],Final,1,2024-11-13_22h22.56.541,binding,2024.1.5,None,2024-11-13 22h25.19.013376 +0530
0.7,1000,exp,18,1,217,5,1213.96794,,1213.961064,1213.96794,1214.068003,1214.967641,1214.967641,1215.187093,space,0.2041324,None,1215.188707,1215.901215,1216.200825,1216.190817,1216.190837,1216.200825,1216.200825,0.0004956,1216.200825,1219.071231,480,[-0.04666666666666667],[-0.3283333333333333],[1],[0],[0],[2.8789983000001484],1,[2.8791494000001876],[2.8791572000000087],Final,1,2024-11-13_22h22.56.541,binding,2024.1.5,None,2024-11-13 22h25.19.013376 +0530
0.1,1000,exp,18,2,218,3,1219.083683,,1219.077684,1219.083683,1219.183745,1220.083639,1220.083639,1220.286794,space,0.1979934,None,1220.288378,1220.40012,1220.716122,1220.704899,1220.704919,1220.716122,1220.716122,0.0005132,1220.716122,1225.319827,200,[-0.04666666666666667],[-0.3283333333333333],[1],[0],[0],[4.613643599999705],1,[4.6137533000000985],[4.6137588999999934],Final,1,2024-11-13_22h22.56.541,binding,2024.1.5,None,2024-11-13 22h25.19.013376 +0530
0.7,1000,exp,18,3,219,11,1225.332866,,1225.326489,1225.332866,1225.432979,1226.332718,1226.332718,1234.201229,space,7.8604732,None,1234.202824,1234.914943,1235.230973,1235.215018,1235.215043,1235.230973,1235.230973,0.0007442,1235.230973,1236.251717,300,[-0.04666666666666667],[-0.3283333333333333],[1],[0],[0],[1.035173400000076],1,[1.0352735000001303],[1.0352793000001839],Final,1,2024-11-13_22h22.56.541,binding,2024.1.5,None,2024-11-13 22h25.19.013376 +0530
0.7,1000,exp,18,4,220,8,1236.264803,,1236.258353,1236.264803,1236.365029,1237.264826,1237.264826,1237.584659,space,0.3152373,None,1237.586199,1238.298028,1238.597778,1238.588942,1238.588961,1238.597778,1238.597778,0.0004652,1238.597778,1241.168017,300,[-0.04666666666666667],[-0.3283333333333333],[1],[0],[0],[2.577856299999894],1,[2.577976000000035],[2.577981600000385],Final,1,2024-11-13_22h22.56.541,binding,2024.1.5,None,2024-11-13 22h25.19.013376 +0530
0.4,1000,exp,18,5,221,4,1241.180877,,1241.174951,1241.180877,1241.280794,1242.180807,1242.180807,1242.650295,space,0.4686061,None,1242.651903,1243.063792,1243.379962,1243.368473,1243.368495,1243.379962,1243.379962,0.0006849,1243.379962,1245.966951,200,[-0.04666666666666667],[-0.3283333333333333],[1],[0],[0],[2.5970335000001796],1,[2.597136099999716],[2.597142399999939],Final,1,2024-11-13_22h22.56.541,binding,2024.1.5,None,2024-11-13 22h25.19.013376 +0530
0.4,400,unexp,18,6,222,1,1245.980281,,1245.973698,1245.980281,1246.080638,1246.979995,1246.979995,1248.716152,space,1.7268254,None,1248.717754,1249.129829,1249.445732,1249.431462,1249.431484,1249.445732,1249.445732,0.0005469,1249.445732,1251.099572,200,[-0.04666666666666667],[-0.3283333333333333],[1],[0],[0],[1.666827099999864],1,[1.6669326999999612],[1.6669379999998455],Final,1,2024-11-13_22h22.56.541,binding,2024.1.5,None,2024-11-13 22h25.19.013376 +0530
0.1,1000,exp,18,7,223,6,1251.112832,,1251.106135,1251.112832,1251.213046,1252.113516,1252.113516,1252.182573,space,0.068138,None,1252.184186,1252.296126,1252.612149,1252.59808,1252.598099,1252.612149,1252.612149,0.0005432,1252.612149,1255.133301,300,[-0.04666666666666667],[-0.3283333333333333],[1],[0],[0],[2.5337282000000414],1,[2.5338834999997744],[2.533890799999881],Final,1,2024-11-13_22h22.56.541,binding,2024.1.5,None,2024-11-13 22h25.19.013376 +0530
0.1,400,unexp,18,8,224,0,1255.145666,,1255.139703,1255.145666,1255.245942,1256.145619,1256.145619,1256.266231,space,0.1097772,None,1256.267842,1256.379005,1256.694796,1256.675837,1256.675857,1256.694796,1256.694796,0.0004983,1256.694796,1258.948357,100,[-0.04666666666666667],[-0.3283333333333333],[1],[0],[0],[2.2712468999998237],1,[2.271359299999858],[2.2713650999999118],Final,1,2024-11-13_22h22.56.541,binding,2024.1.5,None,2024-11-13 22h25.19.013376 +0530
